"","ID","trial","cue","left","right","car_chosen","location_chosen","rt","rt_short","rt_long","reward_n1back","reward","stay_color","stay_key","unchosen_car_oneback","reoffered_unchosen","reoffered_chosen","same_colour_offered","cue_n1back","age","sex","ocir","bai","accident","unchosen_car","stay_car_unch"
"2","038c23706c7f4e259e52b57fa99826ae",2,1,"yellow","blue","yellow","left",1560,"keep","keep",0,1,1,1,"green",0,1,"Same","threat",22,2,0.279371730473444,0.995869588878987,2,"blue",0
"3","038c23706c7f4e259e52b57fa99826ae",3,2,"yellow","red","yellow","left",1199,"keep","keep",1,0,1,1,"blue",0,1,"Same","neutral",22,2,0.279371730473444,0.995869588878987,2,"red",0
"4","038c23706c7f4e259e52b57fa99826ae",4,0,"blue","green","green","right",625,"keep","keep",0,1,0,0,"red",0,0,"Different","threat",22,2,0.279371730473444,0.995869588878987,2,"blue",0
"5","038c23706c7f4e259e52b57fa99826ae",5,0,"red","green","green","right",1260,"keep","keep",1,0,1,1,"blue",0,1,"Same","no cue",22,2,0.279371730473444,0.995869588878987,2,"red",0
"7","038c23706c7f4e259e52b57fa99826ae",7,0,"red","yellow","red","left",1804,"keep","keep",0,1,0,1,"yellow",1,0,"Same","threat",22,2,0.279371730473444,0.995869588878987,2,"yellow",0
"8","038c23706c7f4e259e52b57fa99826ae",8,1,"blue","yellow","yellow","right",2261,"keep","keep",1,0,0,0,"yellow",1,0,"Same","no cue",22,2,0.279371730473444,0.995869588878987,2,"blue",1
"9","038c23706c7f4e259e52b57fa99826ae",9,1,"blue","green","green","right",2679,"keep","keep",0,1,0,1,"blue",1,0,"Same","neutral",22,2,0.279371730473444,0.995869588878987,2,"blue",0
"10","038c23706c7f4e259e52b57fa99826ae",10,2,"blue","yellow","yellow","right",2291,"keep","keep",1,0,0,1,"blue",1,0,"Same","neutral",22,2,0.279371730473444,0.995869588878987,2,"blue",0
"11","038c23706c7f4e259e52b57fa99826ae",11,2,"blue","yellow","blue","left",567,"keep","keep",0,0,0,0,"blue",1,1,"Same","threat",22,2,0.279371730473444,0.995869588878987,2,"yellow",1
"12","038c23706c7f4e259e52b57fa99826ae",12,2,"red","yellow","red","left",1520,"keep","keep",0,0,0,1,"yellow",1,0,"Same","threat",22,2,0.279371730473444,0.995869588878987,2,"yellow",0
"13","038c23706c7f4e259e52b57fa99826ae",13,0,"blue","green","green","right",1721,"keep","keep",0,1,0,0,"yellow",0,0,"Different","threat",22,2,0.279371730473444,0.995869588878987,2,"blue",0
"14","038c23706c7f4e259e52b57fa99826ae",14,1,"blue","yellow","blue","left",2223,"keep","keep",1,0,0,0,"blue",1,0,"Same","no cue",22,2,0.279371730473444,0.995869588878987,2,"yellow",1
"15","038c23706c7f4e259e52b57fa99826ae",15,2,"blue","yellow","yellow","right",1594,"keep","keep",0,1,0,0,"yellow",1,1,"Same","neutral",22,2,0.279371730473444,0.995869588878987,2,"blue",1
"16","038c23706c7f4e259e52b57fa99826ae",16,1,"blue","red","red","right",1790,"keep","keep",1,1,0,1,"blue",1,0,"Same","threat",22,2,0.279371730473444,0.995869588878987,2,"blue",0
"17","038c23706c7f4e259e52b57fa99826ae",17,1,"yellow","blue","yellow","left",1584,"keep","keep",1,0,0,0,"blue",1,0,"Same","neutral",22,2,0.279371730473444,0.995869588878987,2,"blue",0
"18","038c23706c7f4e259e52b57fa99826ae",18,1,"red","green","green","right",1188,"keep","keep",0,0,0,0,"blue",0,0,"Different","neutral",22,2,0.279371730473444,0.995869588878987,2,"red",0
"19","038c23706c7f4e259e52b57fa99826ae",19,0,"green","red","red","right",1165,"keep","keep",0,0,0,1,"red",1,1,"Same","neutral",22,2,0.279371730473444,0.995869588878987,2,"green",1
"20","038c23706c7f4e259e52b57fa99826ae",20,1,"blue","yellow","blue","left",1309,"keep","keep",0,0,0,0,"green",0,0,"Different","no cue",22,2,0.279371730473444,0.995869588878987,2,"yellow",0
"21","038c23706c7f4e259e52b57fa99826ae",21,2,"yellow","blue","blue","right",1474,"keep","keep",0,1,1,0,"yellow",1,1,"Same","neutral",22,2,0.279371730473444,0.995869588878987,2,"yellow",0
"22","038c23706c7f4e259e52b57fa99826ae",22,2,"red","green","green","right",1991,"keep","keep",1,1,0,1,"yellow",0,0,"Different","threat",22,2,0.279371730473444,0.995869588878987,2,"red",0
"23","038c23706c7f4e259e52b57fa99826ae",23,1,"blue","red","blue","left",1811,"keep","keep",1,0,0,0,"red",1,0,"Same","threat",22,2,0.279371730473444,0.995869588878987,2,"red",0
"24","038c23706c7f4e259e52b57fa99826ae",24,0,"yellow","green","green","right",2181,"keep","keep",0,1,0,0,"red",0,0,"Different","neutral",22,2,0.279371730473444,0.995869588878987,2,"yellow",0
"25","038c23706c7f4e259e52b57fa99826ae",25,2,"blue","green","green","right",801,"keep","keep",1,1,1,1,"yellow",0,1,"Same","no cue",22,2,0.279371730473444,0.995869588878987,2,"blue",0
"26","038c23706c7f4e259e52b57fa99826ae",26,0,"blue","green","green","right",692,"keep","keep",1,1,1,1,"blue",1,1,"Same","threat",22,2,0.279371730473444,0.995869588878987,2,"blue",0
"27","038c23706c7f4e259e52b57fa99826ae",27,2,"blue","red","red","right",2329,"keep","keep",1,0,0,1,"blue",1,0,"Same","no cue",22,2,0.279371730473444,0.995869588878987,2,"blue",0
"28","038c23706c7f4e259e52b57fa99826ae",28,1,"green","red","green","left",2300,"keep","keep",0,1,0,0,"blue",0,1,"Same","threat",22,2,0.279371730473444,0.995869588878987,2,"red",0
"29","038c23706c7f4e259e52b57fa99826ae",29,1,"green","yellow","yellow","right",2570,"keep","keep",1,0,0,0,"red",0,1,"Same","neutral",22,2,0.279371730473444,0.995869588878987,2,"green",0
"30","038c23706c7f4e259e52b57fa99826ae",30,0,"yellow","blue","yellow","left",1728,"keep","keep",0,0,1,0,"green",0,1,"Same","neutral",22,2,0.279371730473444,0.995869588878987,2,"blue",0
"31","038c23706c7f4e259e52b57fa99826ae",31,1,"yellow","green","green","right",1168,"keep","keep",0,1,0,0,"blue",0,1,"Same","no cue",22,2,0.279371730473444,0.995869588878987,2,"yellow",0
"32","038c23706c7f4e259e52b57fa99826ae",32,1,"red","yellow","red","left",2498,"keep","keep",1,0,0,0,"yellow",1,0,"Same","neutral",22,2,0.279371730473444,0.995869588878987,2,"yellow",0
"33","038c23706c7f4e259e52b57fa99826ae",33,0,"green","blue","green","left",1290,"keep","keep",0,1,0,1,"yellow",0,0,"Different","neutral",22,2,0.279371730473444,0.995869588878987,2,"blue",0
"34","038c23706c7f4e259e52b57fa99826ae",34,2,"red","blue","blue","right",2108,"keep","keep",1,0,0,0,"blue",1,0,"Same","no cue",22,2,0.279371730473444,0.995869588878987,2,"red",1
"36","038c23706c7f4e259e52b57fa99826ae",36,0,"green","red","green","left",1094,"keep","keep",0,1,0,0,"yellow",0,0,"Different","threat",22,2,0.279371730473444,0.995869588878987,2,"red",0
"37","038c23706c7f4e259e52b57fa99826ae",37,1,"yellow","green","green","right",2028,"keep","keep",1,1,1,0,"red",0,1,"Same","no cue",22,2,0.279371730473444,0.995869588878987,2,"yellow",0
"38","038c23706c7f4e259e52b57fa99826ae",38,0,"red","blue","red","left",1771,"keep","keep",1,1,0,0,"yellow",0,0,"Different","neutral",22,2,0.279371730473444,0.995869588878987,2,"blue",0
"39","038c23706c7f4e259e52b57fa99826ae",39,0,"yellow","red","red","right",2638,"keep","keep",1,1,1,0,"blue",0,1,"Same","no cue",22,2,0.279371730473444,0.995869588878987,2,"yellow",0
"40","038c23706c7f4e259e52b57fa99826ae",40,1,"yellow","green","green","right",1473,"keep","keep",1,1,0,1,"yellow",1,0,"Same","no cue",22,2,0.279371730473444,0.995869588878987,2,"yellow",0
"42","038c23706c7f4e259e52b57fa99826ae",42,0,"red","blue","red","left",1322,"keep","keep",0,0,0,0,"green",0,0,"Different","threat",22,2,0.279371730473444,0.995869588878987,2,"blue",0
"43","038c23706c7f4e259e52b57fa99826ae",43,1,"yellow","green","yellow","left",1258,"keep","keep",0,0,0,1,"blue",0,0,"Different","no cue",22,2,0.279371730473444,0.995869588878987,2,"green",0
"44","038c23706c7f4e259e52b57fa99826ae",44,1,"blue","red","red","right",1445,"keep","keep",0,0,0,0,"green",0,0,"Different","neutral",22,2,0.279371730473444,0.995869588878987,2,"blue",0
"45","038c23706c7f4e259e52b57fa99826ae",45,2,"blue","green","green","right",2041,"keep","keep",0,1,0,1,"blue",1,0,"Same","neutral",22,2,0.279371730473444,0.995869588878987,2,"blue",0
"46","038c23706c7f4e259e52b57fa99826ae",46,1,"yellow","red","yellow","left",2443,"keep","keep",1,1,0,0,"blue",0,0,"Different","threat",22,2,0.279371730473444,0.995869588878987,2,"red",0
"47","038c23706c7f4e259e52b57fa99826ae",47,1,"yellow","red","yellow","left",1199,"keep","keep",1,0,1,1,"red",1,1,"Same","neutral",22,2,0.279371730473444,0.995869588878987,2,"red",0
"48","038c23706c7f4e259e52b57fa99826ae",48,1,"yellow","green","green","right",1313,"keep","keep",0,0,0,0,"red",0,1,"Same","neutral",22,2,0.279371730473444,0.995869588878987,2,"yellow",0
"49","038c23706c7f4e259e52b57fa99826ae",49,1,"yellow","red","red","right",1494,"keep","keep",0,0,0,1,"yellow",1,0,"Same","neutral",22,2,0.279371730473444,0.995869588878987,2,"yellow",0
"50","038c23706c7f4e259e52b57fa99826ae",50,1,"red","green","red","left",2177,"keep","keep",0,1,1,0,"yellow",0,1,"Same","neutral",22,2,0.279371730473444,0.995869588878987,2,"green",0
"51","038c23706c7f4e259e52b57fa99826ae",51,1,"red","green","red","left",1534,"keep","keep",1,0,1,1,"green",1,1,"Same","neutral",22,2,0.279371730473444,0.995869588878987,2,"green",0
"52","038c23706c7f4e259e52b57fa99826ae",52,1,"green","yellow","yellow","right",2229,"keep","keep",0,1,0,0,"green",1,0,"Same","neutral",22,2,0.279371730473444,0.995869588878987,2,"green",0
"53","038c23706c7f4e259e52b57fa99826ae",53,2,"green","red","red","right",2467,"keep","keep",1,0,0,1,"green",1,0,"Same","neutral",22,2,0.279371730473444,0.995869588878987,2,"green",0
"55","038c23706c7f4e259e52b57fa99826ae",55,2,"blue","yellow","blue","left",1319,"keep","keep",0,0,0,0,"red",0,1,"Same","neutral",22,2,0.279371730473444,0.995869588878987,2,"yellow",0
"57","038c23706c7f4e259e52b57fa99826ae",57,0,"yellow","blue","blue","right",1448,"keep","keep",0,0,0,0,"blue",1,0,"Same","neutral",22,2,0.279371730473444,0.995869588878987,2,"yellow",1
"58","038c23706c7f4e259e52b57fa99826ae",58,1,"yellow","blue","yellow","left",1468,"keep","keep",0,1,0,0,"yellow",1,1,"Same","no cue",22,2,0.279371730473444,0.995869588878987,2,"blue",1
"59","038c23706c7f4e259e52b57fa99826ae",59,2,"yellow","red","yellow","left",1463,"keep","keep",1,0,1,1,"blue",0,1,"Same","neutral",22,2,0.279371730473444,0.995869588878987,2,"red",0
"60","038c23706c7f4e259e52b57fa99826ae",60,1,"yellow","red","red","right",1130,"keep","keep",0,0,0,0,"red",1,1,"Same","threat",22,2,0.279371730473444,0.995869588878987,2,"yellow",1
"61","038c23706c7f4e259e52b57fa99826ae",61,1,"yellow","red","yellow","left",1573,"keep","keep",0,0,0,0,"yellow",1,1,"Same","neutral",22,2,0.279371730473444,0.995869588878987,2,"red",1
"62","038c23706c7f4e259e52b57fa99826ae",62,0,"blue","red","red","right",2433,"keep","keep",0,1,0,0,"red",1,0,"Same","neutral",22,2,0.279371730473444,0.995869588878987,2,"blue",1
"63","038c23706c7f4e259e52b57fa99826ae",63,0,"blue","green","blue","left",2450,"keep","keep",1,1,0,0,"blue",1,0,"Same","no cue",22,2,0.279371730473444,0.995869588878987,2,"green",1
"64","038c23706c7f4e259e52b57fa99826ae",64,1,"red","green","red","left",1242,"keep","keep",1,0,0,1,"green",1,0,"Same","no cue",22,2,0.279371730473444,0.995869588878987,2,"green",0
"65","038c23706c7f4e259e52b57fa99826ae",65,1,"yellow","green","green","right",1282,"keep","keep",0,1,0,0,"green",1,0,"Same","neutral",22,2,0.279371730473444,0.995869588878987,2,"yellow",1
"66","038c23706c7f4e259e52b57fa99826ae",66,0,"red","green","green","right",1432,"keep","keep",1,0,1,1,"yellow",0,1,"Same","neutral",22,2,0.279371730473444,0.995869588878987,2,"red",0
"67","038c23706c7f4e259e52b57fa99826ae",67,1,"red","yellow","red","left",2171,"keep","keep",0,1,0,0,"red",1,0,"Same","no cue",22,2,0.279371730473444,0.995869588878987,2,"yellow",1
"68","038c23706c7f4e259e52b57fa99826ae",68,0,"red","yellow","red","left",2149,"keep","keep",1,1,1,1,"yellow",1,1,"Same","neutral",22,2,0.279371730473444,0.995869588878987,2,"yellow",0
"69","038c23706c7f4e259e52b57fa99826ae",69,0,"yellow","green","green","right",1609,"keep","keep",1,0,0,0,"yellow",1,0,"Same","no cue",22,2,0.279371730473444,0.995869588878987,2,"yellow",0
"70","038c23706c7f4e259e52b57fa99826ae",70,0,"green","blue","green","left",1948,"keep","keep",0,1,1,0,"yellow",0,1,"Same","no cue",22,2,0.279371730473444,0.995869588878987,2,"blue",0
"71","038c23706c7f4e259e52b57fa99826ae",71,1,"green","yellow","green","left",653,"keep","keep",1,1,1,1,"blue",0,1,"Same","no cue",22,2,0.279371730473444,0.995869588878987,2,"yellow",0
"72","038c23706c7f4e259e52b57fa99826ae",72,1,"green","blue","green","left",1907,"keep","keep",1,1,1,1,"yellow",0,1,"Same","neutral",22,2,0.279371730473444,0.995869588878987,2,"blue",0
"73","038c23706c7f4e259e52b57fa99826ae",73,0,"yellow","blue","yellow","left",2542,"keep","keep",1,0,0,1,"blue",1,0,"Same","neutral",22,2,0.279371730473444,0.995869588878987,2,"blue",0
"74","038c23706c7f4e259e52b57fa99826ae",74,0,"green","red","red","right",1904,"keep","keep",0,1,0,0,"blue",0,0,"Different","no cue",22,2,0.279371730473444,0.995869588878987,2,"green",0
"75","038c23706c7f4e259e52b57fa99826ae",75,1,"yellow","red","yellow","left",2412,"keep","keep",1,0,0,0,"green",0,1,"Same","no cue",22,2,0.279371730473444,0.995869588878987,2,"red",0
"76","038c23706c7f4e259e52b57fa99826ae",76,2,"red","yellow","yellow","right",1202,"keep","keep",0,1,1,0,"red",1,1,"Same","neutral",22,2,0.279371730473444,0.995869588878987,2,"red",0
"77","038c23706c7f4e259e52b57fa99826ae",77,2,"blue","green","green","right",1510,"keep","keep",1,0,0,1,"red",0,0,"Different","threat",22,2,0.279371730473444,0.995869588878987,2,"blue",0
"78","038c23706c7f4e259e52b57fa99826ae",78,1,"green","blue","blue","right",1463,"keep","keep",0,0,0,1,"blue",1,1,"Same","threat",22,2,0.279371730473444,0.995869588878987,2,"green",1
"79","038c23706c7f4e259e52b57fa99826ae",79,1,"blue","green","green","right",2579,"keep","keep",0,0,0,1,"green",1,1,"Same","neutral",22,2,0.279371730473444,0.995869588878987,2,"blue",1
"80","038c23706c7f4e259e52b57fa99826ae",80,0,"green","yellow","yellow","right",1351,"keep","keep",0,0,0,1,"blue",0,1,"Same","neutral",22,2,0.279371730473444,0.995869588878987,2,"green",0
"82","038c23706c7f4e259e52b57fa99826ae",82,0,"red","green","green","right",1684,"keep","keep",1,0,0,1,"red",1,0,"Same","no cue",22,2,0.279371730473444,0.995869588878987,2,"red",0
"83","038c23706c7f4e259e52b57fa99826ae",83,1,"yellow","red","yellow","left",2323,"keep","keep",0,1,0,0,"red",1,0,"Same","no cue",22,2,0.279371730473444,0.995869588878987,2,"red",0
"84","038c23706c7f4e259e52b57fa99826ae",84,0,"blue","red","blue","left",1153,"keep","keep",1,0,0,1,"red",1,0,"Same","neutral",22,2,0.279371730473444,0.995869588878987,2,"red",0
"85","038c23706c7f4e259e52b57fa99826ae",85,2,"green","blue","green","left",2431,"keep","keep",0,1,0,1,"red",0,1,"Same","no cue",22,2,0.279371730473444,0.995869588878987,2,"blue",0
"86","038c23706c7f4e259e52b57fa99826ae",86,2,"green","blue","green","left",1190,"keep","keep",1,0,1,1,"blue",1,1,"Same","threat",22,2,0.279371730473444,0.995869588878987,2,"blue",0
"88","038c23706c7f4e259e52b57fa99826ae",88,1,"yellow","blue","yellow","left",1132,"keep","keep",0,0,1,0,"blue",1,1,"Same","threat",22,2,0.279371730473444,0.995869588878987,2,"blue",0
"89","038c23706c7f4e259e52b57fa99826ae",89,1,"green","yellow","green","left",1041,"keep","keep",0,1,0,1,"blue",0,1,"Same","neutral",22,2,0.279371730473444,0.995869588878987,2,"yellow",0
"90","038c23706c7f4e259e52b57fa99826ae",90,1,"red","blue","blue","right",1364,"keep","keep",1,1,0,0,"yellow",0,0,"Different","neutral",22,2,0.279371730473444,0.995869588878987,2,"red",0
"91","038c23706c7f4e259e52b57fa99826ae",91,1,"green","red","green","left",1279,"keep","keep",1,0,0,0,"red",1,0,"Same","neutral",22,2,0.279371730473444,0.995869588878987,2,"red",0
"92","038c23706c7f4e259e52b57fa99826ae",92,2,"blue","red","blue","left",2282,"keep","keep",0,1,0,1,"red",1,0,"Same","neutral",22,2,0.279371730473444,0.995869588878987,2,"red",0
"93","038c23706c7f4e259e52b57fa99826ae",93,0,"yellow","blue","yellow","left",1828,"keep","keep",1,0,0,1,"red",0,1,"Same","threat",22,2,0.279371730473444,0.995869588878987,2,"blue",0
"94","038c23706c7f4e259e52b57fa99826ae",94,2,"blue","yellow","yellow","right",810,"keep","keep",0,1,1,0,"blue",1,1,"Same","no cue",22,2,0.279371730473444,0.995869588878987,2,"blue",0
"95","038c23706c7f4e259e52b57fa99826ae",95,2,"green","red","green","left",998,"keep","keep",1,0,0,0,"blue",0,0,"Different","threat",22,2,0.279371730473444,0.995869588878987,2,"red",0
"96","038c23706c7f4e259e52b57fa99826ae",96,1,"yellow","blue","blue","right",1514,"keep","keep",0,0,0,0,"red",0,0,"Different","threat",22,2,0.279371730473444,0.995869588878987,2,"yellow",0
"97","038c23706c7f4e259e52b57fa99826ae",97,2,"green","yellow","green","left",904,"keep","keep",0,1,0,0,"yellow",1,0,"Same","neutral",22,2,0.279371730473444,0.995869588878987,2,"yellow",0
"98","038c23706c7f4e259e52b57fa99826ae",98,1,"red","yellow","red","left",1128,"keep","keep",1,1,0,1,"yellow",1,0,"Same","threat",22,2,0.279371730473444,0.995869588878987,2,"yellow",0
"99","038c23706c7f4e259e52b57fa99826ae",99,2,"blue","red","blue","left",1683,"keep","keep",1,0,0,1,"yellow",0,1,"Same","neutral",22,2,0.279371730473444,0.995869588878987,2,"red",0
"100","038c23706c7f4e259e52b57fa99826ae",100,1,"blue","yellow","yellow","right",1314,"keep","keep",0,0,0,0,"red",0,1,"Same","threat",22,2,0.279371730473444,0.995869588878987,2,"blue",0
"101","038c23706c7f4e259e52b57fa99826ae",101,2,"yellow","blue","yellow","left",1483,"keep","keep",0,0,1,0,"blue",1,1,"Same","neutral",22,2,0.279371730473444,0.995869588878987,2,"blue",0
"102","038c23706c7f4e259e52b57fa99826ae",102,0,"blue","green","green","right",1288,"keep","keep",0,1,0,0,"blue",1,0,"Same","threat",22,2,0.279371730473444,0.995869588878987,2,"blue",0
"103","038c23706c7f4e259e52b57fa99826ae",103,0,"yellow","blue","blue","right",2579,"keep","keep",1,1,0,1,"blue",1,0,"Same","no cue",22,2,0.279371730473444,0.995869588878987,2,"yellow",1
"104","038c23706c7f4e259e52b57fa99826ae",104,0,"blue","green","green","right",1514,"keep","keep",1,1,0,1,"yellow",0,1,"Same","no cue",22,2,0.279371730473444,0.995869588878987,2,"blue",0
"105","038c23706c7f4e259e52b57fa99826ae",105,2,"red","yellow","red","left",2070,"keep","keep",1,1,0,0,"blue",0,0,"Different","no cue",22,2,0.279371730473444,0.995869588878987,2,"yellow",0
"106","038c23706c7f4e259e52b57fa99826ae",106,0,"green","red","green","left",2144,"keep","keep",1,1,0,1,"yellow",0,1,"Same","threat",22,2,0.279371730473444,0.995869588878987,2,"red",0
"107","038c23706c7f4e259e52b57fa99826ae",107,2,"red","blue","blue","right",2128,"keep","keep",1,1,0,0,"red",1,0,"Same","no cue",22,2,0.279371730473444,0.995869588878987,2,"red",0
"108","038c23706c7f4e259e52b57fa99826ae",108,0,"blue","red","blue","left",1089,"keep","keep",1,0,1,0,"red",1,1,"Same","threat",22,2,0.279371730473444,0.995869588878987,2,"red",0
"109","038c23706c7f4e259e52b57fa99826ae",109,1,"red","green","green","right",1170,"keep","keep",0,0,0,0,"red",1,0,"Same","no cue",22,2,0.279371730473444,0.995869588878987,2,"red",0
"110","038c23706c7f4e259e52b57fa99826ae",110,1,"red","yellow","yellow","right",1956,"keep","keep",0,1,0,1,"red",1,0,"Same","neutral",22,2,0.279371730473444,0.995869588878987,2,"red",0
"111","038c23706c7f4e259e52b57fa99826ae",111,1,"yellow","red","yellow","left",915,"keep","keep",1,1,1,0,"red",1,1,"Same","neutral",22,2,0.279371730473444,0.995869588878987,2,"red",0
"112","038c23706c7f4e259e52b57fa99826ae",112,0,"red","blue","blue","right",1909,"keep","keep",1,0,0,0,"red",1,0,"Same","neutral",22,2,0.279371730473444,0.995869588878987,2,"red",0
"113","038c23706c7f4e259e52b57fa99826ae",113,0,"red","green","green","right",1577,"keep","keep",0,0,0,1,"red",1,0,"Same","no cue",22,2,0.279371730473444,0.995869588878987,2,"red",0
"114","038c23706c7f4e259e52b57fa99826ae",114,0,"yellow","blue","yellow","left",1758,"keep","keep",0,1,0,0,"red",0,0,"Different","no cue",22,2,0.279371730473444,0.995869588878987,2,"blue",0
"115","038c23706c7f4e259e52b57fa99826ae",115,2,"green","yellow","green","left",2327,"keep","keep",1,1,0,1,"blue",0,1,"Same","no cue",22,2,0.279371730473444,0.995869588878987,2,"yellow",0
"116","038c23706c7f4e259e52b57fa99826ae",116,1,"yellow","green","green","right",1244,"keep","keep",1,0,1,0,"yellow",1,1,"Same","threat",22,2,0.279371730473444,0.995869588878987,2,"yellow",0
"117","038c23706c7f4e259e52b57fa99826ae",117,2,"blue","red","red","right",2849,"keep","keep",0,1,0,1,"yellow",0,0,"Different","neutral",22,2,0.279371730473444,0.995869588878987,2,"blue",0
"118","038c23706c7f4e259e52b57fa99826ae",118,0,"blue","red","red","right",695,"keep","keep",1,1,1,1,"blue",1,1,"Same","threat",22,2,0.279371730473444,0.995869588878987,2,"blue",0
"119","038c23706c7f4e259e52b57fa99826ae",119,0,"yellow","red","yellow","left",1748,"keep","keep",1,0,0,0,"blue",0,1,"Same","no cue",22,2,0.279371730473444,0.995869588878987,2,"red",0
"120","038c23706c7f4e259e52b57fa99826ae",120,2,"green","red","red","right",1233,"keep","keep",0,1,0,0,"red",1,0,"Same","no cue",22,2,0.279371730473444,0.995869588878987,2,"green",1
"122","038c23706c7f4e259e52b57fa99826ae",122,1,"yellow","red","yellow","left",1162,"keep","keep",0,1,0,0,"green",0,0,"Different","no cue",22,2,0.279371730473444,0.995869588878987,2,"red",0
"123","038c23706c7f4e259e52b57fa99826ae",123,1,"blue","green","green","right",1512,"keep","keep",1,1,0,0,"red",0,0,"Different","neutral",22,2,0.279371730473444,0.995869588878987,2,"blue",0
"124","038c23706c7f4e259e52b57fa99826ae",124,2,"blue","green","green","right",960,"keep","keep",1,1,1,1,"blue",1,1,"Same","neutral",22,2,0.279371730473444,0.995869588878987,2,"blue",0
"125","038c23706c7f4e259e52b57fa99826ae",125,0,"red","blue","red","left",1120,"keep","keep",1,0,0,0,"blue",1,0,"Same","threat",22,2,0.279371730473444,0.995869588878987,2,"blue",0
"126","038c23706c7f4e259e52b57fa99826ae",126,2,"blue","yellow","yellow","right",1949,"keep","keep",0,1,0,0,"blue",1,0,"Same","no cue",22,2,0.279371730473444,0.995869588878987,2,"blue",0
"127","038c23706c7f4e259e52b57fa99826ae",127,1,"red","blue","red","left",1556,"keep","keep",1,0,0,0,"blue",1,0,"Same","threat",22,2,0.279371730473444,0.995869588878987,2,"blue",0
"128","038c23706c7f4e259e52b57fa99826ae",128,1,"yellow","red","yellow","left",2505,"keep","keep",0,1,0,1,"blue",0,1,"Same","neutral",22,2,0.279371730473444,0.995869588878987,2,"red",0
"129","038c23706c7f4e259e52b57fa99826ae",129,2,"green","blue","blue","right",1290,"keep","keep",1,1,0,0,"red",0,0,"Different","neutral",22,2,0.279371730473444,0.995869588878987,2,"green",0
"130","038c23706c7f4e259e52b57fa99826ae",130,2,"yellow","red","yellow","left",1501,"keep","keep",1,0,0,0,"green",0,0,"Different","threat",22,2,0.279371730473444,0.995869588878987,2,"red",0
"131","038c23706c7f4e259e52b57fa99826ae",131,0,"green","red","green","left",1463,"keep","keep",0,0,0,1,"red",1,0,"Same","threat",22,2,0.279371730473444,0.995869588878987,2,"red",0
"132","038c23706c7f4e259e52b57fa99826ae",132,0,"yellow","red","red","right",1487,"keep","keep",0,0,0,0,"red",1,0,"Same","no cue",22,2,0.279371730473444,0.995869588878987,2,"yellow",1
"133","038c23706c7f4e259e52b57fa99826ae",133,2,"blue","green","blue","left",2083,"keep","keep",0,1,0,0,"yellow",0,0,"Different","no cue",22,2,0.279371730473444,0.995869588878987,2,"green",0
"134","038c23706c7f4e259e52b57fa99826ae",134,2,"blue","green","blue","left",848,"keep","keep",1,1,1,1,"green",1,1,"Same","threat",22,2,0.279371730473444,0.995869588878987,2,"green",0
"135","038c23706c7f4e259e52b57fa99826ae",135,0,"yellow","blue","yellow","left",1189,"keep","keep",1,0,0,1,"green",0,1,"Same","threat",22,2,0.279371730473444,0.995869588878987,2,"blue",0
"136","038c23706c7f4e259e52b57fa99826ae",136,2,"blue","green","blue","left",2228,"keep","keep",0,0,0,1,"blue",1,0,"Same","no cue",22,2,0.279371730473444,0.995869588878987,2,"green",1
"137","038c23706c7f4e259e52b57fa99826ae",137,2,"yellow","green","green","right",2104,"keep","keep",0,0,0,0,"green",1,0,"Same","threat",22,2,0.279371730473444,0.995869588878987,2,"yellow",1
"138","038c23706c7f4e259e52b57fa99826ae",138,1,"green","yellow","green","left",1178,"keep","keep",0,0,1,0,"yellow",1,1,"Same","threat",22,2,0.279371730473444,0.995869588878987,2,"yellow",0
"139","038c23706c7f4e259e52b57fa99826ae",139,0,"green","blue","blue","right",1310,"keep","keep",0,0,0,0,"yellow",0,1,"Same","neutral",22,2,0.279371730473444,0.995869588878987,2,"green",0
"140","038c23706c7f4e259e52b57fa99826ae",140,0,"yellow","red","red","right",1102,"keep","keep",0,1,0,1,"green",0,0,"Different","no cue",22,2,0.279371730473444,0.995869588878987,2,"yellow",0
"141","038c23706c7f4e259e52b57fa99826ae",141,1,"green","yellow","yellow","right",1363,"keep","keep",1,0,0,1,"yellow",1,0,"Same","no cue",22,2,0.279371730473444,0.995869588878987,2,"green",1
"142","038c23706c7f4e259e52b57fa99826ae",142,2,"yellow","green","yellow","left",687,"keep","keep",0,0,1,0,"green",1,1,"Same","neutral",22,2,0.279371730473444,0.995869588878987,2,"green",0
"143","038c23706c7f4e259e52b57fa99826ae",143,1,"green","yellow","green","left",1113,"keep","keep",0,1,0,1,"green",1,1,"Same","threat",22,2,0.279371730473444,0.995869588878987,2,"yellow",1
"144","038c23706c7f4e259e52b57fa99826ae",144,0,"red","green","red","left",1237,"keep","keep",1,1,0,1,"yellow",0,1,"Same","neutral",22,2,0.279371730473444,0.995869588878987,2,"green",0
"145","038c23706c7f4e259e52b57fa99826ae",145,1,"blue","green","blue","left",1396,"keep","keep",1,0,0,1,"green",1,0,"Same","no cue",22,2,0.279371730473444,0.995869588878987,2,"green",0
"146","038c23706c7f4e259e52b57fa99826ae",146,1,"red","blue","blue","right",673,"keep","keep",0,1,1,0,"green",0,1,"Same","neutral",22,2,0.279371730473444,0.995869588878987,2,"red",0
"147","038c23706c7f4e259e52b57fa99826ae",147,0,"blue","red","blue","left",1182,"keep","keep",1,1,1,0,"red",1,1,"Same","neutral",22,2,0.279371730473444,0.995869588878987,2,"red",0
"148","038c23706c7f4e259e52b57fa99826ae",148,2,"blue","red","blue","left",500,"keep","keep",1,1,1,1,"red",1,1,"Same","no cue",22,2,0.279371730473444,0.995869588878987,2,"red",0
"149","038c23706c7f4e259e52b57fa99826ae",149,2,"red","yellow","yellow","right",1055,"keep","keep",1,0,0,0,"red",1,0,"Same","threat",22,2,0.279371730473444,0.995869588878987,2,"red",0
"150","038c23706c7f4e259e52b57fa99826ae",150,2,"green","blue","green","left",851,"keep","keep",0,1,0,0,"red",0,0,"Different","threat",22,2,0.279371730473444,0.995869588878987,2,"blue",0
"151","038c23706c7f4e259e52b57fa99826ae",151,1,"yellow","blue","blue","right",967,"keep","keep",1,1,0,0,"blue",1,0,"Same","threat",22,2,0.279371730473444,0.995869588878987,2,"yellow",1
"152","038c23706c7f4e259e52b57fa99826ae",152,1,"green","yellow","green","left",1153,"keep","keep",1,1,0,0,"yellow",1,0,"Same","neutral",22,2,0.279371730473444,0.995869588878987,2,"yellow",0
"153","038c23706c7f4e259e52b57fa99826ae",153,0,"blue","green","green","right",1040,"keep","keep",1,1,1,0,"yellow",0,1,"Same","neutral",22,2,0.279371730473444,0.995869588878987,2,"blue",0
"154","038c23706c7f4e259e52b57fa99826ae",154,0,"green","yellow","green","left",1828,"keep","keep",1,1,1,0,"blue",0,1,"Same","no cue",22,2,0.279371730473444,0.995869588878987,2,"yellow",0
"155","038c23706c7f4e259e52b57fa99826ae",155,0,"red","blue","blue","right",1449,"keep","keep",1,0,0,0,"yellow",0,0,"Different","no cue",22,2,0.279371730473444,0.995869588878987,2,"red",0
"156","038c23706c7f4e259e52b57fa99826ae",156,0,"red","yellow","yellow","right",1729,"keep","keep",0,0,0,1,"red",1,0,"Same","no cue",22,2,0.279371730473444,0.995869588878987,2,"red",0
"157","038c23706c7f4e259e52b57fa99826ae",157,2,"green","blue","blue","right",2491,"keep","keep",0,0,0,1,"red",0,0,"Different","no cue",22,2,0.279371730473444,0.995869588878987,2,"green",0
"158","038c23706c7f4e259e52b57fa99826ae",158,0,"yellow","green","yellow","left",1516,"keep","keep",0,0,0,0,"green",1,0,"Same","threat",22,2,0.279371730473444,0.995869588878987,2,"green",0
"159","038c23706c7f4e259e52b57fa99826ae",159,0,"blue","green","blue","left",1973,"keep","keep",0,0,0,1,"green",1,0,"Same","no cue",22,2,0.279371730473444,0.995869588878987,2,"green",0
"160","038c23706c7f4e259e52b57fa99826ae",160,0,"red","blue","red","left",2247,"keep","keep",0,1,0,1,"green",0,1,"Same","no cue",22,2,0.279371730473444,0.995869588878987,2,"blue",0
"162","038c23706c7f4e259e52b57fa99826ae",162,2,"blue","yellow","yellow","right",2067,"keep","keep",0,0,0,1,"yellow",1,1,"Same","threat",22,2,0.279371730473444,0.995869588878987,2,"blue",1
"163","038c23706c7f4e259e52b57fa99826ae",163,2,"blue","red","blue","left",908,"keep","keep",0,1,0,0,"blue",1,0,"Same","threat",22,2,0.279371730473444,0.995869588878987,2,"red",1
"164","038c23706c7f4e259e52b57fa99826ae",164,1,"red","green","red","left",756,"keep","keep",1,0,0,1,"red",1,0,"Same","threat",22,2,0.279371730473444,0.995869588878987,2,"green",1
"165","038c23706c7f4e259e52b57fa99826ae",165,1,"green","blue","blue","right",1199,"keep","keep",0,0,0,0,"green",1,0,"Same","neutral",22,2,0.279371730473444,0.995869588878987,2,"green",0
"166","038c23706c7f4e259e52b57fa99826ae",166,0,"green","yellow","yellow","right",1157,"keep","keep",0,1,0,1,"green",1,0,"Same","neutral",22,2,0.279371730473444,0.995869588878987,2,"green",0
"167","038c23706c7f4e259e52b57fa99826ae",167,0,"blue","yellow","blue","left",1919,"keep","keep",1,0,0,0,"green",0,1,"Same","no cue",22,2,0.279371730473444,0.995869588878987,2,"yellow",0
"168","038c23706c7f4e259e52b57fa99826ae",168,2,"red","blue","blue","right",1367,"keep","keep",0,0,1,0,"yellow",0,1,"Same","no cue",22,2,0.279371730473444,0.995869588878987,2,"red",0
"169","038c23706c7f4e259e52b57fa99826ae",169,0,"red","yellow","red","left",1100,"keep","keep",0,0,0,0,"red",1,0,"Same","threat",22,2,0.279371730473444,0.995869588878987,2,"yellow",1
"170","038c23706c7f4e259e52b57fa99826ae",170,0,"blue","red","red","right",1468,"keep","keep",0,0,1,0,"yellow",0,1,"Same","no cue",22,2,0.279371730473444,0.995869588878987,2,"blue",0
"171","038c23706c7f4e259e52b57fa99826ae",171,2,"red","green","green","right",1794,"keep","keep",0,1,0,1,"blue",0,1,"Same","no cue",22,2,0.279371730473444,0.995869588878987,2,"red",0
"172","038c23706c7f4e259e52b57fa99826ae",172,0,"green","blue","green","left",1928,"keep","keep",1,1,1,0,"red",0,1,"Same","threat",22,2,0.279371730473444,0.995869588878987,2,"blue",0
"173","038c23706c7f4e259e52b57fa99826ae",173,0,"green","blue","green","left",662,"keep","keep",1,1,1,1,"blue",1,1,"Same","no cue",22,2,0.279371730473444,0.995869588878987,2,"blue",0
"174","038c23706c7f4e259e52b57fa99826ae",174,2,"green","blue","green","left",540,"keep","keep",1,1,1,1,"blue",1,1,"Same","no cue",22,2,0.279371730473444,0.995869588878987,2,"blue",0
"175","038c23706c7f4e259e52b57fa99826ae",175,2,"green","red","green","left",1782,"keep","keep",1,1,1,1,"blue",0,1,"Same","threat",22,2,0.279371730473444,0.995869588878987,2,"red",0
"176","038c23706c7f4e259e52b57fa99826ae",176,0,"green","blue","green","left",705,"keep","keep",1,0,1,1,"red",0,1,"Same","threat",22,2,0.279371730473444,0.995869588878987,2,"blue",0
"177","038c23706c7f4e259e52b57fa99826ae",177,0,"red","blue","blue","right",2111,"keep","keep",0,0,0,0,"blue",1,0,"Same","no cue",22,2,0.279371730473444,0.995869588878987,2,"red",1
"178","038c23706c7f4e259e52b57fa99826ae",178,1,"red","green","green","right",1202,"keep","keep",0,1,0,1,"red",1,0,"Same","no cue",22,2,0.279371730473444,0.995869588878987,2,"red",0
"179","038c23706c7f4e259e52b57fa99826ae",179,1,"yellow","green","yellow","left",1034,"keep","keep",1,0,0,0,"red",0,1,"Same","neutral",22,2,0.279371730473444,0.995869588878987,2,"green",0
"180","038c23706c7f4e259e52b57fa99826ae",180,2,"green","red","green","left",1100,"keep","keep",0,1,0,1,"green",1,0,"Same","neutral",22,2,0.279371730473444,0.995869588878987,2,"red",1
"181","038c23706c7f4e259e52b57fa99826ae",181,2,"blue","yellow","yellow","right",1770,"keep","keep",1,1,0,0,"red",0,0,"Different","threat",22,2,0.279371730473444,0.995869588878987,2,"blue",0
"182","038c23706c7f4e259e52b57fa99826ae",182,0,"blue","yellow","yellow","right",852,"keep","keep",1,1,1,1,"blue",1,1,"Same","threat",22,2,0.279371730473444,0.995869588878987,2,"blue",0
"183","038c23706c7f4e259e52b57fa99826ae",183,0,"blue","green","blue","left",1894,"keep","keep",1,0,0,0,"blue",1,0,"Same","no cue",22,2,0.279371730473444,0.995869588878987,2,"green",1
"184","038c23706c7f4e259e52b57fa99826ae",184,2,"yellow","blue","blue","right",1969,"keep","keep",0,0,1,0,"green",0,1,"Same","no cue",22,2,0.279371730473444,0.995869588878987,2,"yellow",0
"185","038c23706c7f4e259e52b57fa99826ae",185,2,"blue","red","blue","left",1522,"keep","keep",0,1,1,0,"yellow",0,1,"Same","threat",22,2,0.279371730473444,0.995869588878987,2,"red",0
"186","038c23706c7f4e259e52b57fa99826ae",186,0,"green","yellow","green","left",1120,"keep","keep",1,1,0,1,"red",0,0,"Different","threat",22,2,0.279371730473444,0.995869588878987,2,"yellow",0
"187","038c23706c7f4e259e52b57fa99826ae",187,2,"green","blue","green","left",679,"keep","keep",1,0,1,1,"yellow",0,1,"Same","no cue",22,2,0.279371730473444,0.995869588878987,2,"blue",0
"188","038c23706c7f4e259e52b57fa99826ae",188,2,"green","red","green","left",774,"keep","keep",0,1,1,1,"blue",0,1,"Same","threat",22,2,0.279371730473444,0.995869588878987,2,"red",0
"189","038c23706c7f4e259e52b57fa99826ae",189,2,"blue","yellow","blue","left",1324,"keep","keep",1,0,0,1,"red",0,0,"Different","threat",22,2,0.279371730473444,0.995869588878987,2,"yellow",0
"190","038c23706c7f4e259e52b57fa99826ae",190,0,"blue","yellow","yellow","right",1072,"keep","keep",0,0,0,0,"yellow",1,1,"Same","threat",22,2,0.279371730473444,0.995869588878987,2,"blue",1
"191","038c23706c7f4e259e52b57fa99826ae",191,0,"yellow","red","red","right",1173,"keep","keep",0,1,0,1,"blue",0,1,"Same","no cue",22,2,0.279371730473444,0.995869588878987,2,"yellow",0
"192","038c23706c7f4e259e52b57fa99826ae",192,2,"green","yellow","green","left",2050,"keep","keep",1,0,0,0,"yellow",1,0,"Same","no cue",22,2,0.279371730473444,0.995869588878987,2,"yellow",0
"193","038c23706c7f4e259e52b57fa99826ae",193,1,"red","green","green","right",649,"keep","keep",0,1,1,0,"yellow",0,1,"Same","threat",22,2,0.279371730473444,0.995869588878987,2,"red",0
"194","038c23706c7f4e259e52b57fa99826ae",194,2,"yellow","red","yellow","left",1736,"keep","keep",1,1,0,0,"red",1,0,"Same","neutral",22,2,0.279371730473444,0.995869588878987,2,"red",0
"195","038c23706c7f4e259e52b57fa99826ae",195,1,"red","yellow","yellow","right",782,"keep","keep",1,1,1,0,"red",1,1,"Same","threat",22,2,0.279371730473444,0.995869588878987,2,"red",0
"196","038c23706c7f4e259e52b57fa99826ae",196,0,"red","blue","red","left",1872,"keep","keep",1,1,0,0,"red",1,0,"Same","neutral",22,2,0.279371730473444,0.995869588878987,2,"blue",1
"197","038c23706c7f4e259e52b57fa99826ae",197,0,"green","blue","green","left",1296,"keep","keep",1,1,0,1,"blue",1,0,"Same","no cue",22,2,0.279371730473444,0.995869588878987,2,"blue",0
"198","038c23706c7f4e259e52b57fa99826ae",198,1,"green","blue","green","left",481,"keep","keep",1,0,1,1,"blue",1,1,"Same","no cue",22,2,0.279371730473444,0.995869588878987,2,"blue",0
"199","038c23706c7f4e259e52b57fa99826ae",199,1,"red","blue","red","left",1698,"keep","keep",0,1,0,1,"blue",1,0,"Same","neutral",22,2,0.279371730473444,0.995869588878987,2,"blue",0
"200","038c23706c7f4e259e52b57fa99826ae",200,2,"yellow","red","yellow","left",1305,"keep","keep",1,0,0,1,"blue",0,1,"Same","neutral",22,2,0.279371730473444,0.995869588878987,2,"red",0
"202","038c23706c7f4e259e52b57fa99826ae",202,2,"green","yellow","yellow","right",1254,"keep","keep",0,0,1,1,"red",0,1,"Same","neutral",22,2,0.279371730473444,0.995869588878987,2,"green",0
"203","038c23706c7f4e259e52b57fa99826ae",203,1,"red","yellow","red","left",1382,"keep","keep",0,0,0,0,"green",0,1,"Same","threat",22,2,0.279371730473444,0.995869588878987,2,"yellow",0
"204","038c23706c7f4e259e52b57fa99826ae",204,1,"yellow","green","green","right",1010,"keep","keep",0,0,0,0,"yellow",1,0,"Same","neutral",22,2,0.279371730473444,0.995869588878987,2,"yellow",0
"205","038c23706c7f4e259e52b57fa99826ae",205,2,"green","yellow","yellow","right",2232,"keep","keep",0,0,0,1,"yellow",1,1,"Same","neutral",22,2,0.279371730473444,0.995869588878987,2,"green",1
"206","038c23706c7f4e259e52b57fa99826ae",206,2,"green","red","green","left",962,"keep","keep",0,0,0,0,"green",1,0,"Same","threat",22,2,0.279371730473444,0.995869588878987,2,"red",1
"207","038c23706c7f4e259e52b57fa99826ae",207,2,"yellow","blue","blue","right",1439,"keep","keep",0,1,0,0,"red",0,0,"Different","threat",22,2,0.279371730473444,0.995869588878987,2,"yellow",0
"208","038c23706c7f4e259e52b57fa99826ae",208,0,"yellow","blue","blue","right",551,"keep","keep",1,0,1,1,"yellow",1,1,"Same","threat",22,2,0.279371730473444,0.995869588878987,2,"yellow",0
"209","038c23706c7f4e259e52b57fa99826ae",209,2,"blue","red","blue","left",933,"keep","keep",0,0,1,0,"yellow",0,1,"Same","no cue",22,2,0.279371730473444,0.995869588878987,2,"red",0
"211","038c23706c7f4e259e52b57fa99826ae",211,0,"red","green","red","left",1782,"keep","keep",0,1,0,0,"yellow",0,1,"Same","threat",22,2,0.279371730473444,0.995869588878987,2,"green",0
"212","038c23706c7f4e259e52b57fa99826ae",212,2,"green","red","red","right",798,"keep","keep",1,0,1,0,"green",1,1,"Same","no cue",22,2,0.279371730473444,0.995869588878987,2,"green",0
"214","038c23706c7f4e259e52b57fa99826ae",214,0,"blue","yellow","yellow","right",886,"keep","keep",0,1,0,1,"red",0,0,"Different","neutral",22,2,0.279371730473444,0.995869588878987,2,"blue",0
"215","038c23706c7f4e259e52b57fa99826ae",215,1,"green","red","green","left",1368,"keep","keep",1,0,0,0,"blue",0,0,"Different","no cue",22,2,0.279371730473444,0.995869588878987,2,"red",0
"216","038c23706c7f4e259e52b57fa99826ae",216,0,"red","blue","red","left",971,"keep","keep",0,0,0,1,"red",1,0,"Same","neutral",22,2,0.279371730473444,0.995869588878987,2,"blue",1
"217","038c23706c7f4e259e52b57fa99826ae",217,1,"yellow","green","green","right",1127,"keep","keep",0,1,0,0,"blue",0,0,"Different","no cue",22,2,0.279371730473444,0.995869588878987,2,"yellow",0
"219","038c23706c7f4e259e52b57fa99826ae",219,0,"red","green","green","right",1506,"keep","keep",0,0,0,1,"green",1,1,"Same","neutral",22,2,0.279371730473444,0.995869588878987,2,"red",1
"220","038c23706c7f4e259e52b57fa99826ae",220,2,"yellow","green","yellow","left",1032,"keep","keep",0,0,0,0,"red",0,1,"Same","no cue",22,2,0.279371730473444,0.995869588878987,2,"green",0
"221","038c23706c7f4e259e52b57fa99826ae",221,1,"green","blue","blue","right",1042,"keep","keep",0,0,0,0,"green",1,0,"Same","threat",22,2,0.279371730473444,0.995869588878987,2,"green",0
"222","038c23706c7f4e259e52b57fa99826ae",222,2,"red","yellow","red","left",1140,"keep","keep",0,0,0,0,"green",0,0,"Different","neutral",22,2,0.279371730473444,0.995869588878987,2,"yellow",0
"223","038c23706c7f4e259e52b57fa99826ae",223,0,"red","yellow","yellow","right",945,"keep","keep",0,0,0,0,"yellow",1,1,"Same","threat",22,2,0.279371730473444,0.995869588878987,2,"red",1
"224","038c23706c7f4e259e52b57fa99826ae",224,2,"blue","red","blue","left",990,"keep","keep",0,0,0,0,"red",1,0,"Same","no cue",22,2,0.279371730473444,0.995869588878987,2,"red",0
"225","038c23706c7f4e259e52b57fa99826ae",225,1,"red","yellow","yellow","right",737,"keep","keep",0,1,0,0,"red",1,0,"Same","threat",22,2,0.279371730473444,0.995869588878987,2,"red",0
"226","038c23706c7f4e259e52b57fa99826ae",226,2,"blue","red","red","right",957,"keep","keep",1,0,0,1,"red",1,0,"Same","neutral",22,2,0.279371730473444,0.995869588878987,2,"blue",1
"227","038c23706c7f4e259e52b57fa99826ae",227,2,"red","blue","blue","right",840,"keep","keep",0,0,0,1,"blue",1,1,"Same","threat",22,2,0.279371730473444,0.995869588878987,2,"red",1
"228","038c23706c7f4e259e52b57fa99826ae",228,1,"green","red","green","left",1039,"keep","keep",0,0,0,0,"red",1,0,"Same","threat",22,2,0.279371730473444,0.995869588878987,2,"red",0
"229","038c23706c7f4e259e52b57fa99826ae",229,2,"red","green","green","right",891,"keep","keep",0,1,1,0,"red",1,1,"Same","neutral",22,2,0.279371730473444,0.995869588878987,2,"red",0
"230","038c23706c7f4e259e52b57fa99826ae",230,2,"red","yellow","yellow","right",1100,"keep","keep",1,1,0,1,"red",1,0,"Same","threat",22,2,0.279371730473444,0.995869588878987,2,"red",0
"231","038c23706c7f4e259e52b57fa99826ae",231,0,"blue","red","blue","left",1101,"keep","keep",1,0,0,0,"red",1,0,"Same","threat",22,2,0.279371730473444,0.995869588878987,2,"red",0
"232","038c23706c7f4e259e52b57fa99826ae",232,2,"yellow","green","green","right",2662,"keep","keep",0,1,0,0,"red",0,0,"Different","no cue",22,2,0.279371730473444,0.995869588878987,2,"yellow",0
"233","038c23706c7f4e259e52b57fa99826ae",233,0,"blue","yellow","yellow","right",1684,"keep","keep",1,1,0,1,"yellow",1,0,"Same","threat",22,2,0.279371730473444,0.995869588878987,2,"blue",1
"234","038c23706c7f4e259e52b57fa99826ae",234,1,"green","red","green","left",1329,"keep","keep",1,1,0,0,"blue",0,0,"Different","no cue",22,2,0.279371730473444,0.995869588878987,2,"red",0
"235","038c23706c7f4e259e52b57fa99826ae",235,0,"blue","yellow","yellow","right",1400,"keep","keep",1,1,0,0,"red",0,0,"Different","neutral",22,2,0.279371730473444,0.995869588878987,2,"blue",0
"236","038c23706c7f4e259e52b57fa99826ae",236,1,"red","blue","blue","right",1462,"keep","keep",1,0,0,1,"blue",1,0,"Same","no cue",22,2,0.279371730473444,0.995869588878987,2,"red",1
"237","038c23706c7f4e259e52b57fa99826ae",237,2,"red","green","red","left",1120,"keep","keep",0,1,0,0,"red",1,0,"Same","neutral",22,2,0.279371730473444,0.995869588878987,2,"green",1
"238","038c23706c7f4e259e52b57fa99826ae",238,0,"yellow","green","yellow","left",1746,"keep","keep",1,1,0,1,"green",1,0,"Same","threat",22,2,0.279371730473444,0.995869588878987,2,"green",0
"239","038c23706c7f4e259e52b57fa99826ae",239,0,"green","yellow","yellow","right",1064,"keep","keep",1,1,1,0,"green",1,1,"Same","no cue",22,2,0.279371730473444,0.995869588878987,2,"green",0
"240","038c23706c7f4e259e52b57fa99826ae",240,0,"green","red","green","left",1116,"keep","keep",1,1,0,0,"green",1,0,"Same","no cue",22,2,0.279371730473444,0.995869588878987,2,"red",1
"242","05d2123d2e574a1cb3200e4daf73fad3",2,1,"yellow","red","yellow","left",986,"keep","keep",1,1,0,0,"red",1,0,"Same","threat",25,2,0.731907756694891,0.795468727051183,2,"red",0
"243","05d2123d2e574a1cb3200e4daf73fad3",3,0,"blue","red","red","right",794,"keep","keep",1,1,0,0,"red",1,0,"Same","neutral",25,2,0.731907756694891,0.795468727051183,2,"blue",1
"244","05d2123d2e574a1cb3200e4daf73fad3",4,1,"red","green","red","left",2240,"keep","keep",1,1,1,0,"blue",0,1,"Same","no cue",25,2,0.731907756694891,0.795468727051183,2,"green",0
"245","05d2123d2e574a1cb3200e4daf73fad3",5,0,"red","yellow","yellow","right",935,"keep","keep",1,1,0,0,"green",0,1,"Same","neutral",25,2,0.731907756694891,0.795468727051183,2,"red",0
"246","05d2123d2e574a1cb3200e4daf73fad3",6,0,"blue","yellow","blue","left",1306,"keep","keep",1,0,0,0,"red",0,1,"Same","no cue",25,2,0.731907756694891,0.795468727051183,2,"yellow",0
"248","05d2123d2e574a1cb3200e4daf73fad3",8,0,"green","blue","blue","right",491,"keep","keep",1,1,0,1,"blue",1,0,"Same","threat",25,2,0.731907756694891,0.795468727051183,2,"green",1
"249","05d2123d2e574a1cb3200e4daf73fad3",9,1,"yellow","green","yellow","left",817,"keep","keep",1,1,0,0,"green",1,0,"Same","no cue",25,2,0.731907756694891,0.795468727051183,2,"green",0
"250","05d2123d2e574a1cb3200e4daf73fad3",10,2,"red","green","green","right",526,"keep","keep",1,1,0,0,"green",1,0,"Same","neutral",25,2,0.731907756694891,0.795468727051183,2,"red",1
"251","05d2123d2e574a1cb3200e4daf73fad3",11,2,"red","green","green","right",469,"keep","keep",1,1,1,1,"red",1,1,"Same","threat",25,2,0.731907756694891,0.795468727051183,2,"red",0
"252","05d2123d2e574a1cb3200e4daf73fad3",12,0,"yellow","red","yellow","left",661,"keep","keep",1,0,0,0,"red",1,0,"Same","threat",25,2,0.731907756694891,0.795468727051183,2,"red",0
"253","05d2123d2e574a1cb3200e4daf73fad3",13,0,"blue","green","green","right",421,"keep","keep",0,1,0,0,"red",0,0,"Different","no cue",25,2,0.731907756694891,0.795468727051183,2,"blue",0
"254","05d2123d2e574a1cb3200e4daf73fad3",14,1,"green","blue","green","left",1473,"keep","keep",1,1,1,0,"blue",1,1,"Same","no cue",25,2,0.731907756694891,0.795468727051183,2,"blue",0
"255","05d2123d2e574a1cb3200e4daf73fad3",15,0,"green","red","red","right",2659,"keep","keep",1,1,0,0,"blue",0,1,"Same","neutral",25,2,0.731907756694891,0.795468727051183,2,"green",0
"257","05d2123d2e574a1cb3200e4daf73fad3",17,1,"blue","green","green","right",2103,"keep","keep",1,1,0,0,"blue",1,0,"Same","no cue",25,2,0.731907756694891,0.795468727051183,2,"blue",0
"258","05d2123d2e574a1cb3200e4daf73fad3",18,0,"blue","green","green","right",833,"keep","keep",1,1,1,1,"blue",1,1,"Same","neutral",25,2,0.731907756694891,0.795468727051183,2,"blue",0
"259","05d2123d2e574a1cb3200e4daf73fad3",19,2,"red","blue","blue","right",767,"keep","keep",1,1,0,1,"blue",1,0,"Same","no cue",25,2,0.731907756694891,0.795468727051183,2,"red",1
"260","05d2123d2e574a1cb3200e4daf73fad3",20,1,"yellow","blue","blue","right",758,"keep","keep",1,1,1,1,"red",0,1,"Same","threat",25,2,0.731907756694891,0.795468727051183,2,"yellow",0
"261","05d2123d2e574a1cb3200e4daf73fad3",21,1,"red","yellow","yellow","right",402,"keep","keep",1,0,0,1,"yellow",1,0,"Same","neutral",25,2,0.731907756694891,0.795468727051183,2,"red",1
"262","05d2123d2e574a1cb3200e4daf73fad3",22,2,"yellow","blue","yellow","left",1784,"keep","keep",0,0,1,0,"red",0,1,"Same","neutral",25,2,0.731907756694891,0.795468727051183,2,"blue",0
"263","05d2123d2e574a1cb3200e4daf73fad3",23,0,"yellow","red","red","right",751,"keep","keep",0,1,0,0,"blue",0,1,"Same","threat",25,2,0.731907756694891,0.795468727051183,2,"yellow",0
"264","05d2123d2e574a1cb3200e4daf73fad3",24,1,"red","blue","blue","right",1464,"keep","keep",1,0,0,1,"yellow",0,1,"Same","no cue",25,2,0.731907756694891,0.795468727051183,2,"red",0
"265","05d2123d2e574a1cb3200e4daf73fad3",25,2,"yellow","red","yellow","left",681,"keep","keep",0,0,0,0,"red",1,0,"Same","neutral",25,2,0.731907756694891,0.795468727051183,2,"red",0
"266","05d2123d2e574a1cb3200e4daf73fad3",26,0,"red","blue","blue","right",695,"keep","keep",0,0,0,0,"red",1,0,"Same","threat",25,2,0.731907756694891,0.795468727051183,2,"red",0
"267","05d2123d2e574a1cb3200e4daf73fad3",27,0,"green","blue","blue","right",360,"keep","keep",0,1,1,1,"red",0,1,"Same","no cue",25,2,0.731907756694891,0.795468727051183,2,"green",0
"268","05d2123d2e574a1cb3200e4daf73fad3",28,1,"blue","yellow","blue","left",991,"keep","keep",1,0,1,0,"green",0,1,"Same","no cue",25,2,0.731907756694891,0.795468727051183,2,"yellow",0
"269","05d2123d2e574a1cb3200e4daf73fad3",29,1,"green","blue","blue","right",2599,"keep","keep",0,1,1,0,"yellow",0,1,"Same","neutral",25,2,0.731907756694891,0.795468727051183,2,"green",0
"270","05d2123d2e574a1cb3200e4daf73fad3",30,1,"yellow","red","yellow","left",1054,"keep","keep",1,0,0,0,"green",0,0,"Different","neutral",25,2,0.731907756694891,0.795468727051183,2,"red",0
"271","05d2123d2e574a1cb3200e4daf73fad3",31,1,"red","green","green","right",1975,"keep","keep",0,1,0,0,"red",1,0,"Same","neutral",25,2,0.731907756694891,0.795468727051183,2,"red",0
"272","05d2123d2e574a1cb3200e4daf73fad3",32,1,"green","blue","blue","right",430,"keep","keep",1,1,0,1,"red",0,1,"Same","neutral",25,2,0.731907756694891,0.795468727051183,2,"green",0
"273","05d2123d2e574a1cb3200e4daf73fad3",33,0,"blue","red","blue","left",407,"keep","keep",1,0,1,0,"green",0,1,"Same","neutral",25,2,0.731907756694891,0.795468727051183,2,"red",0
"274","05d2123d2e574a1cb3200e4daf73fad3",34,0,"green","blue","blue","right",359,"keep","keep",0,0,1,0,"red",0,1,"Same","no cue",25,2,0.731907756694891,0.795468727051183,2,"green",0
"275","05d2123d2e574a1cb3200e4daf73fad3",35,0,"blue","red","red","right",421,"keep","keep",0,1,0,1,"green",0,1,"Same","no cue",25,2,0.731907756694891,0.795468727051183,2,"blue",0
"276","05d2123d2e574a1cb3200e4daf73fad3",36,2,"green","red","red","right",1019,"keep","keep",1,1,1,1,"blue",0,1,"Same","no cue",25,2,0.731907756694891,0.795468727051183,2,"green",0
"277","05d2123d2e574a1cb3200e4daf73fad3",37,2,"green","yellow","yellow","right",344,"keep","keep",1,0,0,1,"green",1,0,"Same","threat",25,2,0.731907756694891,0.795468727051183,2,"green",0
"279","05d2123d2e574a1cb3200e4daf73fad3",39,2,"yellow","green","yellow","left",657,"keep","keep",0,1,0,0,"yellow",1,1,"Same","neutral",25,2,0.731907756694891,0.795468727051183,2,"green",1
"280","05d2123d2e574a1cb3200e4daf73fad3",40,1,"red","yellow","yellow","right",557,"keep","keep",1,1,1,0,"green",0,1,"Same","threat",25,2,0.731907756694891,0.795468727051183,2,"red",0
"282","05d2123d2e574a1cb3200e4daf73fad3",42,0,"green","red","green","left",388,"keep","keep",1,0,1,0,"blue",0,1,"Same","threat",25,2,0.731907756694891,0.795468727051183,2,"red",0
"283","05d2123d2e574a1cb3200e4daf73fad3",43,2,"yellow","blue","yellow","left",527,"keep","keep",0,0,0,1,"red",0,0,"Different","no cue",25,2,0.731907756694891,0.795468727051183,2,"blue",0
"284","05d2123d2e574a1cb3200e4daf73fad3",44,2,"green","yellow","yellow","right",556,"keep","keep",0,0,1,0,"blue",0,1,"Same","threat",25,2,0.731907756694891,0.795468727051183,2,"green",0
"285","05d2123d2e574a1cb3200e4daf73fad3",45,1,"red","green","red","left",2196,"keep","keep",0,0,0,0,"green",1,0,"Same","threat",25,2,0.731907756694891,0.795468727051183,2,"green",0
"286","05d2123d2e574a1cb3200e4daf73fad3",46,2,"green","red","green","left",648,"keep","keep",0,1,0,1,"green",1,1,"Same","neutral",25,2,0.731907756694891,0.795468727051183,2,"red",1
"287","05d2123d2e574a1cb3200e4daf73fad3",47,1,"red","blue","red","left",2165,"keep","keep",1,0,0,1,"red",1,0,"Same","threat",25,2,0.731907756694891,0.795468727051183,2,"blue",1
"288","05d2123d2e574a1cb3200e4daf73fad3",48,0,"red","blue","blue","right",655,"keep","keep",0,0,0,0,"blue",1,1,"Same","neutral",25,2,0.731907756694891,0.795468727051183,2,"red",1
"289","05d2123d2e574a1cb3200e4daf73fad3",49,1,"red","yellow","red","left",574,"keep","keep",0,1,0,0,"red",1,0,"Same","no cue",25,2,0.731907756694891,0.795468727051183,2,"yellow",1
"290","05d2123d2e574a1cb3200e4daf73fad3",50,0,"green","blue","green","left",1724,"keep","keep",1,0,0,1,"yellow",0,0,"Different","neutral",25,2,0.731907756694891,0.795468727051183,2,"blue",0
"291","05d2123d2e574a1cb3200e4daf73fad3",51,1,"yellow","blue","blue","right",424,"keep","keep",0,1,0,0,"blue",1,0,"Same","no cue",25,2,0.731907756694891,0.795468727051183,2,"yellow",1
"292","05d2123d2e574a1cb3200e4daf73fad3",52,1,"yellow","blue","yellow","left",490,"keep","keep",1,1,0,0,"yellow",1,1,"Same","neutral",25,2,0.731907756694891,0.795468727051183,2,"blue",1
"293","05d2123d2e574a1cb3200e4daf73fad3",53,1,"blue","green","green","right",602,"keep","keep",1,1,0,0,"blue",1,0,"Same","neutral",25,2,0.731907756694891,0.795468727051183,2,"blue",0
"294","05d2123d2e574a1cb3200e4daf73fad3",54,0,"blue","green","green","right",489,"keep","keep",1,0,1,1,"blue",1,1,"Same","neutral",25,2,0.731907756694891,0.795468727051183,2,"blue",0
"295","05d2123d2e574a1cb3200e4daf73fad3",55,1,"green","red","red","right",486,"keep","keep",0,0,0,1,"blue",0,1,"Same","no cue",25,2,0.731907756694891,0.795468727051183,2,"green",0
"296","05d2123d2e574a1cb3200e4daf73fad3",56,0,"red","green","red","left",367,"keep","keep",0,1,1,0,"green",1,1,"Same","neutral",25,2,0.731907756694891,0.795468727051183,2,"green",0
"297","05d2123d2e574a1cb3200e4daf73fad3",57,1,"green","yellow","green","left",407,"keep","keep",1,1,0,1,"green",1,0,"Same","no cue",25,2,0.731907756694891,0.795468727051183,2,"yellow",1
"298","05d2123d2e574a1cb3200e4daf73fad3",58,1,"green","blue","green","left",535,"keep","keep",1,1,1,1,"yellow",0,1,"Same","neutral",25,2,0.731907756694891,0.795468727051183,2,"blue",0
"299","05d2123d2e574a1cb3200e4daf73fad3",59,2,"green","yellow","green","left",603,"keep","keep",1,1,1,1,"blue",0,1,"Same","neutral",25,2,0.731907756694891,0.795468727051183,2,"yellow",0
"300","05d2123d2e574a1cb3200e4daf73fad3",60,1,"green","yellow","yellow","right",456,"keep","keep",1,0,0,0,"yellow",1,1,"Same","threat",25,2,0.731907756694891,0.795468727051183,2,"green",1
"301","05d2123d2e574a1cb3200e4daf73fad3",61,0,"red","blue","red","left",454,"keep","keep",0,0,0,0,"green",0,0,"Different","neutral",25,2,0.731907756694891,0.795468727051183,2,"blue",0
"302","05d2123d2e574a1cb3200e4daf73fad3",62,1,"red","yellow","red","left",663,"keep","keep",0,1,1,1,"blue",0,1,"Same","no cue",25,2,0.731907756694891,0.795468727051183,2,"yellow",0
"303","05d2123d2e574a1cb3200e4daf73fad3",63,2,"yellow","red","red","right",501,"keep","keep",1,0,1,0,"yellow",1,1,"Same","neutral",25,2,0.731907756694891,0.795468727051183,2,"yellow",0
"305","05d2123d2e574a1cb3200e4daf73fad3",65,2,"red","yellow","yellow","right",473,"keep","keep",0,1,0,1,"yellow",1,0,"Same","threat",25,2,0.731907756694891,0.795468727051183,2,"red",1
"306","05d2123d2e574a1cb3200e4daf73fad3",66,2,"red","blue","red","left",576,"keep","keep",1,1,0,0,"red",1,0,"Same","threat",25,2,0.731907756694891,0.795468727051183,2,"blue",1
"307","05d2123d2e574a1cb3200e4daf73fad3",67,2,"blue","red","blue","left",409,"keep","keep",1,1,0,1,"blue",1,1,"Same","threat",25,2,0.731907756694891,0.795468727051183,2,"red",1
"308","05d2123d2e574a1cb3200e4daf73fad3",68,2,"red","yellow","red","left",444,"keep","keep",1,1,0,1,"red",1,0,"Same","threat",25,2,0.731907756694891,0.795468727051183,2,"yellow",1
"309","05d2123d2e574a1cb3200e4daf73fad3",69,2,"green","yellow","green","left",540,"keep","keep",1,0,0,1,"yellow",1,0,"Same","threat",25,2,0.731907756694891,0.795468727051183,2,"yellow",0
"310","05d2123d2e574a1cb3200e4daf73fad3",70,1,"yellow","blue","blue","right",441,"keep","keep",0,0,0,0,"yellow",1,0,"Same","threat",25,2,0.731907756694891,0.795468727051183,2,"yellow",0
"311","05d2123d2e574a1cb3200e4daf73fad3",71,1,"yellow","red","red","right",321,"keep","keep",0,1,0,1,"yellow",1,0,"Same","neutral",25,2,0.731907756694891,0.795468727051183,2,"yellow",0
"312","05d2123d2e574a1cb3200e4daf73fad3",72,2,"blue","green","green","right",420,"keep","keep",1,0,0,1,"yellow",0,0,"Different","neutral",25,2,0.731907756694891,0.795468727051183,2,"blue",0
"313","05d2123d2e574a1cb3200e4daf73fad3",73,1,"blue","yellow","blue","left",843,"keep","keep",0,0,0,0,"blue",1,0,"Same","threat",25,2,0.731907756694891,0.795468727051183,2,"yellow",1
"314","05d2123d2e574a1cb3200e4daf73fad3",74,0,"red","yellow","red","left",463,"keep","keep",0,1,0,1,"yellow",1,0,"Same","neutral",25,2,0.731907756694891,0.795468727051183,2,"yellow",0
"315","05d2123d2e574a1cb3200e4daf73fad3",75,0,"green","red","red","right",488,"keep","keep",1,1,1,0,"yellow",0,1,"Same","no cue",25,2,0.731907756694891,0.795468727051183,2,"green",0
"316","05d2123d2e574a1cb3200e4daf73fad3",76,0,"red","green","red","left",639,"keep","keep",1,1,1,0,"green",1,1,"Same","no cue",25,2,0.731907756694891,0.795468727051183,2,"green",0
"317","05d2123d2e574a1cb3200e4daf73fad3",77,2,"red","green","red","left",1512,"keep","keep",1,0,1,1,"green",1,1,"Same","no cue",25,2,0.731907756694891,0.795468727051183,2,"green",0
"318","05d2123d2e574a1cb3200e4daf73fad3",78,0,"blue","green","blue","left",1355,"keep","keep",0,0,0,1,"green",1,0,"Same","threat",25,2,0.731907756694891,0.795468727051183,2,"green",0
"319","05d2123d2e574a1cb3200e4daf73fad3",79,2,"green","yellow","yellow","right",708,"keep","keep",0,0,0,0,"green",1,0,"Same","no cue",25,2,0.731907756694891,0.795468727051183,2,"green",0
"320","05d2123d2e574a1cb3200e4daf73fad3",80,0,"yellow","blue","yellow","left",568,"keep","keep",0,1,1,0,"green",0,1,"Same","threat",25,2,0.731907756694891,0.795468727051183,2,"blue",0
"322","05d2123d2e574a1cb3200e4daf73fad3",82,2,"yellow","blue","yellow","left",365,"keep","keep",1,0,0,0,"green",0,0,"Different","threat",25,2,0.731907756694891,0.795468727051183,2,"blue",0
"323","05d2123d2e574a1cb3200e4daf73fad3",83,2,"red","blue","blue","right",269,"keep","keep",0,0,0,0,"blue",1,0,"Same","threat",25,2,0.731907756694891,0.795468727051183,2,"red",1
"324","05d2123d2e574a1cb3200e4daf73fad3",84,2,"red","yellow","red","left",338,"keep","keep",0,1,0,0,"red",1,0,"Same","threat",25,2,0.731907756694891,0.795468727051183,2,"yellow",1
"325","05d2123d2e574a1cb3200e4daf73fad3",85,1,"blue","yellow","yellow","right",389,"keep","keep",1,0,0,0,"yellow",1,0,"Same","threat",25,2,0.731907756694891,0.795468727051183,2,"blue",1
"326","05d2123d2e574a1cb3200e4daf73fad3",86,0,"blue","yellow","yellow","right",405,"keep","keep",0,0,1,1,"blue",1,1,"Same","neutral",25,2,0.731907756694891,0.795468727051183,2,"blue",0
"327","05d2123d2e574a1cb3200e4daf73fad3",87,1,"blue","yellow","yellow","right",448,"keep","keep",0,0,1,1,"blue",1,1,"Same","no cue",25,2,0.731907756694891,0.795468727051183,2,"blue",0
"328","05d2123d2e574a1cb3200e4daf73fad3",88,2,"green","yellow","yellow","right",343,"keep","keep",0,0,1,1,"blue",0,1,"Same","neutral",25,2,0.731907756694891,0.795468727051183,2,"green",0
"329","05d2123d2e574a1cb3200e4daf73fad3",89,1,"yellow","green","green","right",957,"keep","keep",0,1,0,1,"green",1,1,"Same","threat",25,2,0.731907756694891,0.795468727051183,2,"yellow",1
"330","05d2123d2e574a1cb3200e4daf73fad3",90,2,"green","blue","blue","right",466,"keep","keep",1,0,0,1,"yellow",0,1,"Same","neutral",25,2,0.731907756694891,0.795468727051183,2,"green",0
"331","05d2123d2e574a1cb3200e4daf73fad3",91,1,"blue","red","red","right",555,"keep","keep",0,0,0,1,"green",0,1,"Same","threat",25,2,0.731907756694891,0.795468727051183,2,"blue",0
"332","05d2123d2e574a1cb3200e4daf73fad3",92,0,"yellow","blue","yellow","left",462,"keep","keep",0,0,0,0,"blue",1,0,"Same","neutral",25,2,0.731907756694891,0.795468727051183,2,"blue",0
"333","05d2123d2e574a1cb3200e4daf73fad3",93,0,"yellow","blue","yellow","left",405,"keep","keep",0,1,1,1,"blue",1,1,"Same","no cue",25,2,0.731907756694891,0.795468727051183,2,"blue",0
"334","05d2123d2e574a1cb3200e4daf73fad3",94,2,"red","blue","red","left",322,"keep","keep",1,0,0,1,"blue",1,0,"Same","no cue",25,2,0.731907756694891,0.795468727051183,2,"blue",0
"335","05d2123d2e574a1cb3200e4daf73fad3",95,0,"green","red","red","right",447,"keep","keep",0,0,1,0,"blue",0,1,"Same","threat",25,2,0.731907756694891,0.795468727051183,2,"green",0
"336","05d2123d2e574a1cb3200e4daf73fad3",96,2,"green","yellow","green","left",1135,"keep","keep",0,0,0,0,"green",1,0,"Same","no cue",25,2,0.731907756694891,0.795468727051183,2,"yellow",1
"337","05d2123d2e574a1cb3200e4daf73fad3",97,0,"yellow","red","yellow","left",383,"keep","keep",0,0,0,1,"yellow",1,0,"Same","threat",25,2,0.731907756694891,0.795468727051183,2,"red",1
"338","05d2123d2e574a1cb3200e4daf73fad3",98,0,"blue","red","blue","left",357,"keep","keep",0,0,0,1,"red",1,0,"Same","no cue",25,2,0.731907756694891,0.795468727051183,2,"red",0
"339","05d2123d2e574a1cb3200e4daf73fad3",99,1,"red","green","green","right",375,"keep","keep",0,1,0,0,"red",1,0,"Same","no cue",25,2,0.731907756694891,0.795468727051183,2,"red",0
"340","05d2123d2e574a1cb3200e4daf73fad3",100,1,"yellow","green","green","right",470,"keep","keep",1,0,1,1,"red",0,1,"Same","neutral",25,2,0.731907756694891,0.795468727051183,2,"yellow",0
"341","05d2123d2e574a1cb3200e4daf73fad3",101,1,"yellow","red","red","right",722,"keep","keep",0,1,0,1,"yellow",1,0,"Same","neutral",25,2,0.731907756694891,0.795468727051183,2,"yellow",0
"342","05d2123d2e574a1cb3200e4daf73fad3",102,0,"blue","yellow","blue","left",368,"keep","keep",1,0,0,0,"yellow",1,0,"Same","neutral",25,2,0.731907756694891,0.795468727051183,2,"yellow",0
"343","05d2123d2e574a1cb3200e4daf73fad3",103,0,"red","green","green","right",295,"keep","keep",0,0,0,0,"yellow",0,0,"Different","no cue",25,2,0.731907756694891,0.795468727051183,2,"red",0
"344","05d2123d2e574a1cb3200e4daf73fad3",104,2,"green","red","red","right",372,"keep","keep",0,1,0,1,"red",1,1,"Same","no cue",25,2,0.731907756694891,0.795468727051183,2,"green",1
"345","05d2123d2e574a1cb3200e4daf73fad3",105,0,"blue","green","green","right",457,"keep","keep",1,0,0,1,"green",1,0,"Same","threat",25,2,0.731907756694891,0.795468727051183,2,"blue",1
"346","05d2123d2e574a1cb3200e4daf73fad3",106,1,"yellow","red","red","right",622,"keep","keep",0,0,0,1,"blue",0,0,"Different","no cue",25,2,0.731907756694891,0.795468727051183,2,"yellow",0
"347","05d2123d2e574a1cb3200e4daf73fad3",107,2,"yellow","green","green","right",373,"keep","keep",0,0,0,1,"yellow",1,0,"Same","neutral",25,2,0.731907756694891,0.795468727051183,2,"yellow",0
"348","05d2123d2e574a1cb3200e4daf73fad3",108,0,"green","yellow","yellow","right",456,"keep","keep",0,0,0,1,"yellow",1,1,"Same","threat",25,2,0.731907756694891,0.795468727051183,2,"green",1
"349","05d2123d2e574a1cb3200e4daf73fad3",109,0,"blue","red","red","right",547,"keep","keep",0,1,0,1,"green",0,0,"Different","no cue",25,2,0.731907756694891,0.795468727051183,2,"blue",0
"350","05d2123d2e574a1cb3200e4daf73fad3",110,1,"blue","red","blue","left",506,"keep","keep",1,0,0,0,"blue",1,1,"Same","no cue",25,2,0.731907756694891,0.795468727051183,2,"red",1
"351","05d2123d2e574a1cb3200e4daf73fad3",111,0,"red","blue","blue","right",415,"keep","keep",0,0,1,0,"red",1,1,"Same","neutral",25,2,0.731907756694891,0.795468727051183,2,"red",0
"352","05d2123d2e574a1cb3200e4daf73fad3",112,0,"yellow","green","yellow","left",330,"keep","keep",0,1,0,0,"red",0,0,"Different","no cue",25,2,0.731907756694891,0.795468727051183,2,"green",0
"353","05d2123d2e574a1cb3200e4daf73fad3",113,0,"blue","yellow","yellow","right",364,"keep","keep",1,1,1,0,"green",0,1,"Same","no cue",25,2,0.731907756694891,0.795468727051183,2,"blue",0
"354","05d2123d2e574a1cb3200e4daf73fad3",114,1,"red","green","green","right",339,"keep","keep",1,0,0,1,"blue",0,0,"Different","no cue",25,2,0.731907756694891,0.795468727051183,2,"red",0
"355","05d2123d2e574a1cb3200e4daf73fad3",115,1,"green","red","green","left",276,"keep","keep",0,0,1,0,"red",1,1,"Same","neutral",25,2,0.731907756694891,0.795468727051183,2,"red",0
"356","05d2123d2e574a1cb3200e4daf73fad3",116,2,"yellow","green","green","right",263,"keep","keep",0,0,1,0,"red",0,1,"Same","neutral",25,2,0.731907756694891,0.795468727051183,2,"yellow",0
"357","05d2123d2e574a1cb3200e4daf73fad3",117,0,"green","yellow","green","left",266,"keep","keep",0,0,1,0,"yellow",1,1,"Same","threat",25,2,0.731907756694891,0.795468727051183,2,"yellow",0
"358","05d2123d2e574a1cb3200e4daf73fad3",118,1,"blue","yellow","yellow","right",283,"keep","keep",0,0,0,0,"yellow",1,0,"Same","no cue",25,2,0.731907756694891,0.795468727051183,2,"blue",1
"359","05d2123d2e574a1cb3200e4daf73fad3",119,2,"green","yellow","yellow","right",431,"keep","keep",0,0,1,1,"blue",0,1,"Same","neutral",25,2,0.731907756694891,0.795468727051183,2,"green",0
"360","05d2123d2e574a1cb3200e4daf73fad3",120,0,"red","green","green","right",343,"keep","keep",0,1,0,1,"green",1,0,"Same","threat",25,2,0.731907756694891,0.795468727051183,2,"red",1
"362","05d2123d2e574a1cb3200e4daf73fad3",122,2,"blue","red","red","right",1794,"keep","keep",0,1,1,1,"blue",1,1,"Same","no cue",25,2,0.731907756694891,0.795468727051183,2,"blue",0
"363","05d2123d2e574a1cb3200e4daf73fad3",123,1,"yellow","green","yellow","left",2385,"keep","keep",1,1,0,0,"blue",0,0,"Different","threat",25,2,0.731907756694891,0.795468727051183,2,"green",0
"364","05d2123d2e574a1cb3200e4daf73fad3",124,0,"yellow","red","yellow","left",1211,"keep","keep",1,0,1,1,"green",0,1,"Same","neutral",25,2,0.731907756694891,0.795468727051183,2,"red",0
"365","05d2123d2e574a1cb3200e4daf73fad3",125,0,"green","blue","green","left",380,"keep","keep",0,1,0,1,"red",0,0,"Different","no cue",25,2,0.731907756694891,0.795468727051183,2,"blue",0
"367","05d2123d2e574a1cb3200e4daf73fad3",127,0,"red","blue","red","left",374,"keep","keep",1,1,0,1,"green",0,1,"Same","neutral",25,2,0.731907756694891,0.795468727051183,2,"blue",0
"368","05d2123d2e574a1cb3200e4daf73fad3",128,2,"blue","green","green","right",914,"keep","keep",1,0,0,0,"blue",1,0,"Same","no cue",25,2,0.731907756694891,0.795468727051183,2,"blue",0
"369","05d2123d2e574a1cb3200e4daf73fad3",129,0,"red","yellow","yellow","right",1889,"keep","keep",0,1,0,1,"blue",0,0,"Different","threat",25,2,0.731907756694891,0.795468727051183,2,"red",0
"370","05d2123d2e574a1cb3200e4daf73fad3",130,2,"red","blue","blue","right",486,"keep","keep",1,0,0,1,"red",1,0,"Same","no cue",25,2,0.731907756694891,0.795468727051183,2,"red",0
"371","05d2123d2e574a1cb3200e4daf73fad3",131,2,"blue","yellow","yellow","right",683,"keep","keep",0,1,0,1,"red",0,1,"Same","threat",25,2,0.731907756694891,0.795468727051183,2,"blue",0
"373","05d2123d2e574a1cb3200e4daf73fad3",133,0,"yellow","red","yellow","left",1483,"keep","keep",0,1,0,0,"blue",0,1,"Same","neutral",25,2,0.731907756694891,0.795468727051183,2,"red",0
"374","05d2123d2e574a1cb3200e4daf73fad3",134,1,"green","red","red","right",2487,"keep","keep",1,1,0,0,"red",1,0,"Same","no cue",25,2,0.731907756694891,0.795468727051183,2,"green",1
"375","05d2123d2e574a1cb3200e4daf73fad3",135,1,"blue","yellow","blue","left",490,"keep","keep",1,1,0,0,"green",0,0,"Different","neutral",25,2,0.731907756694891,0.795468727051183,2,"yellow",0
"376","05d2123d2e574a1cb3200e4daf73fad3",136,0,"blue","red","blue","left",396,"keep","keep",1,1,1,1,"yellow",0,1,"Same","neutral",25,2,0.731907756694891,0.795468727051183,2,"red",0
"378","05d2123d2e574a1cb3200e4daf73fad3",138,0,"yellow","green","yellow","left",900,"keep","keep",0,1,0,0,"yellow",1,1,"Same","no cue",25,2,0.731907756694891,0.795468727051183,2,"green",1
"379","05d2123d2e574a1cb3200e4daf73fad3",139,1,"green","blue","blue","right",1129,"keep","keep",1,1,0,0,"green",1,0,"Same","no cue",25,2,0.731907756694891,0.795468727051183,2,"green",0
"380","05d2123d2e574a1cb3200e4daf73fad3",140,1,"green","red","green","left",1736,"keep","keep",1,1,0,0,"green",1,0,"Same","neutral",25,2,0.731907756694891,0.795468727051183,2,"red",1
"381","05d2123d2e574a1cb3200e4daf73fad3",141,1,"red","yellow","red","left",372,"keep","keep",1,1,0,1,"red",1,0,"Same","neutral",25,2,0.731907756694891,0.795468727051183,2,"yellow",1
"382","05d2123d2e574a1cb3200e4daf73fad3",142,2,"red","yellow","red","left",1470,"keep","keep",1,1,1,1,"yellow",1,1,"Same","neutral",25,2,0.731907756694891,0.795468727051183,2,"yellow",0
"384","05d2123d2e574a1cb3200e4daf73fad3",144,2,"green","red","green","left",1130,"keep","keep",0,0,0,0,"yellow",0,0,"Different","threat",25,2,0.731907756694891,0.795468727051183,2,"red",0
"385","05d2123d2e574a1cb3200e4daf73fad3",145,0,"yellow","green","green","right",2130,"keep","keep",0,1,1,0,"red",0,1,"Same","threat",25,2,0.731907756694891,0.795468727051183,2,"yellow",0
"386","05d2123d2e574a1cb3200e4daf73fad3",146,2,"green","blue","blue","right",1539,"keep","keep",1,0,0,1,"yellow",0,1,"Same","no cue",25,2,0.731907756694891,0.795468727051183,2,"green",0
"387","05d2123d2e574a1cb3200e4daf73fad3",147,1,"blue","red","red","right",1656,"keep","keep",0,0,0,1,"green",0,1,"Same","threat",25,2,0.731907756694891,0.795468727051183,2,"blue",0
"388","05d2123d2e574a1cb3200e4daf73fad3",148,2,"green","red","red","right",1383,"keep","keep",0,1,1,1,"blue",0,1,"Same","neutral",25,2,0.731907756694891,0.795468727051183,2,"green",0
"389","05d2123d2e574a1cb3200e4daf73fad3",149,0,"green","yellow","yellow","right",669,"keep","keep",1,0,0,1,"green",1,0,"Same","threat",25,2,0.731907756694891,0.795468727051183,2,"green",0
"390","05d2123d2e574a1cb3200e4daf73fad3",150,2,"red","yellow","yellow","right",2522,"keep","keep",0,1,1,1,"green",0,1,"Same","no cue",25,2,0.731907756694891,0.795468727051183,2,"red",0
"391","05d2123d2e574a1cb3200e4daf73fad3",151,2,"green","yellow","yellow","right",2352,"keep","keep",1,0,1,1,"red",0,1,"Same","threat",25,2,0.731907756694891,0.795468727051183,2,"green",0
"392","05d2123d2e574a1cb3200e4daf73fad3",152,2,"blue","yellow","yellow","right",1072,"keep","keep",0,0,1,1,"green",0,1,"Same","threat",25,2,0.731907756694891,0.795468727051183,2,"blue",0
"393","05d2123d2e574a1cb3200e4daf73fad3",153,0,"green","yellow","yellow","right",1624,"keep","keep",0,1,1,1,"blue",0,1,"Same","threat",25,2,0.731907756694891,0.795468727051183,2,"green",0
"394","05d2123d2e574a1cb3200e4daf73fad3",154,1,"yellow","blue","blue","right",2625,"keep","keep",1,0,0,1,"green",0,1,"Same","no cue",25,2,0.731907756694891,0.795468727051183,2,"yellow",0
"395","05d2123d2e574a1cb3200e4daf73fad3",155,0,"red","yellow","yellow","right",2741,"keep","keep",0,1,0,1,"yellow",1,0,"Same","neutral",25,2,0.731907756694891,0.795468727051183,2,"red",1
"397","05d2123d2e574a1cb3200e4daf73fad3",157,0,"green","blue","blue","right",2840,"keep","keep",0,0,0,1,"red",0,1,"Same","threat",25,2,0.731907756694891,0.795468727051183,2,"green",0
"398","05d2123d2e574a1cb3200e4daf73fad3",158,1,"blue","yellow","yellow","right",2002,"keep","keep",0,0,0,1,"green",0,1,"Same","no cue",25,2,0.731907756694891,0.795468727051183,2,"blue",0
"399","05d2123d2e574a1cb3200e4daf73fad3",159,0,"blue","yellow","yellow","right",1829,"keep","keep",0,0,1,1,"blue",1,1,"Same","neutral",25,2,0.731907756694891,0.795468727051183,2,"blue",0
"404","05d2123d2e574a1cb3200e4daf73fad3",164,2,"blue","yellow","blue","left",1422,"keep","keep",0,1,0,0,"yellow",1,0,"Same","threat",25,2,0.731907756694891,0.795468727051183,2,"yellow",0
"405","05d2123d2e574a1cb3200e4daf73fad3",165,2,"green","yellow","yellow","right",706,"keep","keep",1,1,0,0,"yellow",1,0,"Same","threat",25,2,0.731907756694891,0.795468727051183,2,"green",1
"406","05d2123d2e574a1cb3200e4daf73fad3",166,2,"red","yellow","red","left",1506,"keep","keep",1,1,0,0,"green",0,1,"Same","threat",25,2,0.731907756694891,0.795468727051183,2,"yellow",0
"407","05d2123d2e574a1cb3200e4daf73fad3",167,0,"blue","red","red","right",2642,"keep","keep",1,1,1,0,"yellow",0,1,"Same","threat",25,2,0.731907756694891,0.795468727051183,2,"blue",0
"408","05d2123d2e574a1cb3200e4daf73fad3",168,2,"yellow","red","red","right",623,"keep","keep",1,0,1,1,"blue",0,1,"Same","no cue",25,2,0.731907756694891,0.795468727051183,2,"yellow",0
"410","05d2123d2e574a1cb3200e4daf73fad3",170,2,"yellow","green","green","right",340,"keep","keep",1,0,0,1,"green",1,1,"Same","neutral",25,2,0.731907756694891,0.795468727051183,2,"yellow",1
"411","05d2123d2e574a1cb3200e4daf73fad3",171,0,"blue","green","blue","left",1374,"keep","keep",0,0,0,0,"yellow",0,1,"Same","threat",25,2,0.731907756694891,0.795468727051183,2,"green",0
"412","05d2123d2e574a1cb3200e4daf73fad3",172,0,"red","blue","red","left",1862,"keep","keep",0,1,0,1,"green",0,1,"Same","no cue",25,2,0.731907756694891,0.795468727051183,2,"blue",0
"413","05d2123d2e574a1cb3200e4daf73fad3",173,2,"red","blue","red","left",804,"keep","keep",1,1,1,1,"blue",1,1,"Same","no cue",25,2,0.731907756694891,0.795468727051183,2,"blue",0
"414","05d2123d2e574a1cb3200e4daf73fad3",174,1,"red","green","green","right",550,"keep","keep",1,1,0,0,"blue",0,1,"Same","threat",25,2,0.731907756694891,0.795468727051183,2,"red",0
"415","05d2123d2e574a1cb3200e4daf73fad3",175,1,"yellow","blue","yellow","left",672,"keep","keep",1,1,0,0,"red",0,0,"Different","neutral",25,2,0.731907756694891,0.795468727051183,2,"blue",0
"416","05d2123d2e574a1cb3200e4daf73fad3",176,2,"blue","yellow","blue","left",1105,"keep","keep",1,1,0,1,"blue",1,1,"Same","neutral",25,2,0.731907756694891,0.795468727051183,2,"yellow",1
"417","05d2123d2e574a1cb3200e4daf73fad3",177,2,"red","blue","red","left",1646,"keep","keep",1,0,0,1,"yellow",0,1,"Same","threat",25,2,0.731907756694891,0.795468727051183,2,"blue",0
"418","05d2123d2e574a1cb3200e4daf73fad3",178,1,"green","red","red","right",1854,"keep","keep",0,1,1,0,"blue",0,1,"Same","threat",25,2,0.731907756694891,0.795468727051183,2,"green",0
"419","05d2123d2e574a1cb3200e4daf73fad3",179,0,"red","blue","blue","right",348,"keep","keep",1,1,0,1,"green",0,1,"Same","neutral",25,2,0.731907756694891,0.795468727051183,2,"red",0
"420","05d2123d2e574a1cb3200e4daf73fad3",180,1,"red","yellow","yellow","right",795,"keep","keep",1,0,0,1,"red",1,0,"Same","no cue",25,2,0.731907756694891,0.795468727051183,2,"red",0
"422","05d2123d2e574a1cb3200e4daf73fad3",182,2,"blue","red","blue","left",1130,"keep","keep",1,0,0,0,"blue",1,0,"Same","no cue",25,2,0.731907756694891,0.795468727051183,2,"red",1
"423","05d2123d2e574a1cb3200e4daf73fad3",183,1,"yellow","red","red","right",514,"keep","keep",0,0,0,0,"red",1,0,"Same","threat",25,2,0.731907756694891,0.795468727051183,2,"yellow",1
"424","05d2123d2e574a1cb3200e4daf73fad3",184,0,"blue","green","blue","left",518,"keep","keep",0,0,0,0,"yellow",0,0,"Different","neutral",25,2,0.731907756694891,0.795468727051183,2,"green",0
"425","05d2123d2e574a1cb3200e4daf73fad3",185,0,"blue","green","green","right",410,"keep","keep",0,1,0,0,"green",1,1,"Same","no cue",25,2,0.731907756694891,0.795468727051183,2,"blue",1
"426","05d2123d2e574a1cb3200e4daf73fad3",186,1,"red","green","red","left",693,"keep","keep",1,0,0,0,"blue",0,1,"Same","no cue",25,2,0.731907756694891,0.795468727051183,2,"green",0
"427","05d2123d2e574a1cb3200e4daf73fad3",187,1,"blue","red","blue","left",427,"keep","keep",0,0,0,1,"green",0,1,"Same","neutral",25,2,0.731907756694891,0.795468727051183,2,"red",0
"428","05d2123d2e574a1cb3200e4daf73fad3",188,1,"yellow","blue","blue","right",557,"keep","keep",0,0,1,0,"red",0,1,"Same","neutral",25,2,0.731907756694891,0.795468727051183,2,"yellow",0
"429","05d2123d2e574a1cb3200e4daf73fad3",189,1,"green","yellow","yellow","right",1023,"keep","keep",0,0,0,1,"yellow",1,0,"Same","neutral",25,2,0.731907756694891,0.795468727051183,2,"green",1
"430","05d2123d2e574a1cb3200e4daf73fad3",190,0,"blue","yellow","yellow","right",435,"keep","keep",0,1,1,1,"green",0,1,"Same","neutral",25,2,0.731907756694891,0.795468727051183,2,"blue",0
"431","05d2123d2e574a1cb3200e4daf73fad3",191,2,"red","yellow","yellow","right",421,"keep","keep",1,1,1,1,"blue",0,1,"Same","no cue",25,2,0.731907756694891,0.795468727051183,2,"red",0
"432","05d2123d2e574a1cb3200e4daf73fad3",192,0,"yellow","red","red","right",389,"keep","keep",1,0,0,1,"red",1,1,"Same","threat",25,2,0.731907756694891,0.795468727051183,2,"yellow",1
"433","05d2123d2e574a1cb3200e4daf73fad3",193,1,"red","yellow","yellow","right",547,"keep","keep",0,1,0,1,"yellow",1,1,"Same","no cue",25,2,0.731907756694891,0.795468727051183,2,"red",1
"434","05d2123d2e574a1cb3200e4daf73fad3",194,2,"yellow","red","red","right",434,"keep","keep",1,0,0,1,"red",1,1,"Same","neutral",25,2,0.731907756694891,0.795468727051183,2,"yellow",1
"435","05d2123d2e574a1cb3200e4daf73fad3",195,2,"yellow","green","green","right",350,"keep","keep",0,1,0,1,"yellow",1,0,"Same","threat",25,2,0.731907756694891,0.795468727051183,2,"yellow",0
"436","05d2123d2e574a1cb3200e4daf73fad3",196,1,"red","green","green","right",349,"keep","keep",1,0,1,1,"yellow",0,1,"Same","threat",25,2,0.731907756694891,0.795468727051183,2,"red",0
"437","05d2123d2e574a1cb3200e4daf73fad3",197,1,"blue","green","green","right",273,"keep","keep",0,0,1,1,"red",0,1,"Same","neutral",25,2,0.731907756694891,0.795468727051183,2,"blue",0
"438","05d2123d2e574a1cb3200e4daf73fad3",198,0,"green","blue","blue","right",311,"keep","keep",0,0,0,1,"blue",1,1,"Same","neutral",25,2,0.731907756694891,0.795468727051183,2,"green",1
"439","05d2123d2e574a1cb3200e4daf73fad3",199,1,"blue","green","green","right",333,"keep","keep",0,0,0,1,"green",1,1,"Same","no cue",25,2,0.731907756694891,0.795468727051183,2,"blue",1
"440","05d2123d2e574a1cb3200e4daf73fad3",200,0,"green","red","red","right",400,"keep","keep",0,0,0,1,"blue",0,1,"Same","neutral",25,2,0.731907756694891,0.795468727051183,2,"green",0
"442","05d2123d2e574a1cb3200e4daf73fad3",202,1,"green","blue","blue","right",374,"keep","keep",0,1,0,1,"green",1,0,"Same","threat",25,2,0.731907756694891,0.795468727051183,2,"green",0
"443","05d2123d2e574a1cb3200e4daf73fad3",203,1,"blue","red","red","right",375,"keep","keep",1,0,0,1,"green",0,1,"Same","neutral",25,2,0.731907756694891,0.795468727051183,2,"blue",0
"444","05d2123d2e574a1cb3200e4daf73fad3",204,2,"blue","green","green","right",490,"keep","keep",0,0,0,1,"blue",1,0,"Same","neutral",25,2,0.731907756694891,0.795468727051183,2,"blue",0
"445","05d2123d2e574a1cb3200e4daf73fad3",205,0,"yellow","blue","blue","right",535,"keep","keep",0,0,0,1,"blue",1,0,"Same","threat",25,2,0.731907756694891,0.795468727051183,2,"yellow",1
"446","05d2123d2e574a1cb3200e4daf73fad3",206,2,"yellow","blue","blue","right",366,"keep","keep",0,1,1,1,"yellow",1,1,"Same","no cue",25,2,0.731907756694891,0.795468727051183,2,"yellow",0
"447","05d2123d2e574a1cb3200e4daf73fad3",207,1,"red","green","green","right",2202,"keep","keep",1,1,0,1,"yellow",0,0,"Different","threat",25,2,0.731907756694891,0.795468727051183,2,"red",0
"449","05d2123d2e574a1cb3200e4daf73fad3",209,0,"red","yellow","yellow","right",650,"keep","keep",1,0,0,1,"green",0,0,"Different","threat",25,2,0.731907756694891,0.795468727051183,2,"red",0
"450","05d2123d2e574a1cb3200e4daf73fad3",210,2,"red","blue","blue","right",520,"keep","keep",0,1,0,1,"red",1,0,"Same","no cue",25,2,0.731907756694891,0.795468727051183,2,"red",0
"452","05d2123d2e574a1cb3200e4daf73fad3",212,1,"blue","yellow","yellow","right",650,"keep","keep",1,0,0,1,"yellow",1,1,"Same","threat",25,2,0.731907756694891,0.795468727051183,2,"blue",1
"453","05d2123d2e574a1cb3200e4daf73fad3",213,2,"blue","yellow","yellow","right",382,"keep","keep",0,0,1,1,"blue",1,1,"Same","neutral",25,2,0.731907756694891,0.795468727051183,2,"blue",0
"454","05d2123d2e574a1cb3200e4daf73fad3",214,1,"blue","green","green","right",431,"keep","keep",0,1,0,1,"blue",1,0,"Same","threat",25,2,0.731907756694891,0.795468727051183,2,"blue",0
"455","05d2123d2e574a1cb3200e4daf73fad3",215,2,"yellow","green","green","right",409,"keep","keep",1,0,1,1,"blue",0,1,"Same","neutral",25,2,0.731907756694891,0.795468727051183,2,"yellow",0
"456","05d2123d2e574a1cb3200e4daf73fad3",216,2,"yellow","red","red","right",246,"keep","keep",0,1,0,1,"yellow",1,0,"Same","threat",25,2,0.731907756694891,0.795468727051183,2,"yellow",0
"457","05d2123d2e574a1cb3200e4daf73fad3",217,2,"blue","green","green","right",313,"keep","keep",1,1,0,1,"yellow",0,0,"Different","threat",25,2,0.731907756694891,0.795468727051183,2,"blue",0
"458","05d2123d2e574a1cb3200e4daf73fad3",218,0,"green","blue","blue","right",768,"keep","keep",1,0,0,1,"blue",1,1,"Same","threat",25,2,0.731907756694891,0.795468727051183,2,"green",1
"459","05d2123d2e574a1cb3200e4daf73fad3",219,2,"yellow","blue","yellow","left",1061,"keep","keep",0,0,0,0,"green",0,1,"Same","no cue",25,2,0.731907756694891,0.795468727051183,2,"blue",0
"461","05d2123d2e574a1cb3200e4daf73fad3",221,2,"red","blue","blue","right",874,"keep","keep",0,0,0,1,"yellow",0,1,"Same","no cue",25,2,0.731907756694891,0.795468727051183,2,"red",0
"462","05d2123d2e574a1cb3200e4daf73fad3",222,0,"green","red","green","left",1851,"keep","keep",0,1,0,0,"red",1,0,"Same","threat",25,2,0.731907756694891,0.795468727051183,2,"red",0
"464","05d2123d2e574a1cb3200e4daf73fad3",224,2,"green","red","red","right",2918,"keep","keep",0,1,0,1,"yellow",0,0,"Different","neutral",25,2,0.731907756694891,0.795468727051183,2,"green",0
"465","05d2123d2e574a1cb3200e4daf73fad3",225,0,"red","blue","red","left",1853,"keep","keep",1,0,1,0,"green",0,1,"Same","threat",25,2,0.731907756694891,0.795468727051183,2,"blue",0
"466","05d2123d2e574a1cb3200e4daf73fad3",226,1,"green","blue","blue","right",2110,"keep","keep",0,0,0,0,"blue",1,0,"Same","no cue",25,2,0.731907756694891,0.795468727051183,2,"green",1
"467","05d2123d2e574a1cb3200e4daf73fad3",227,1,"blue","green","blue","left",501,"keep","keep",0,0,1,0,"green",1,1,"Same","neutral",25,2,0.731907756694891,0.795468727051183,2,"green",0
"468","05d2123d2e574a1cb3200e4daf73fad3",228,2,"yellow","green","green","right",608,"keep","keep",0,0,0,0,"green",1,0,"Same","neutral",25,2,0.731907756694891,0.795468727051183,2,"yellow",1
"469","05d2123d2e574a1cb3200e4daf73fad3",229,1,"blue","red","red","right",438,"keep","keep",0,0,0,1,"yellow",0,0,"Different","threat",25,2,0.731907756694891,0.795468727051183,2,"blue",0
"470","05d2123d2e574a1cb3200e4daf73fad3",230,1,"blue","red","blue","left",421,"keep","keep",0,0,0,0,"blue",1,1,"Same","neutral",25,2,0.731907756694891,0.795468727051183,2,"red",1
"471","05d2123d2e574a1cb3200e4daf73fad3",231,1,"red","blue","blue","right",443,"keep","keep",0,1,1,0,"red",1,1,"Same","neutral",25,2,0.731907756694891,0.795468727051183,2,"red",0
"472","05d2123d2e574a1cb3200e4daf73fad3",232,0,"yellow","red","red","right",431,"keep","keep",1,0,0,1,"red",1,0,"Same","neutral",25,2,0.731907756694891,0.795468727051183,2,"yellow",1
"473","05d2123d2e574a1cb3200e4daf73fad3",233,0,"green","yellow","yellow","right",517,"keep","keep",0,0,0,1,"yellow",1,0,"Same","no cue",25,2,0.731907756694891,0.795468727051183,2,"green",1
"474","05d2123d2e574a1cb3200e4daf73fad3",234,2,"green","blue","green","left",410,"keep","keep",0,0,0,0,"green",1,0,"Same","no cue",25,2,0.731907756694891,0.795468727051183,2,"blue",1
"477","05d2123d2e574a1cb3200e4daf73fad3",237,2,"red","yellow","red","left",713,"keep","keep",0,0,0,1,"blue",0,0,"Different","no cue",25,2,0.731907756694891,0.795468727051183,2,"yellow",0
"478","05d2123d2e574a1cb3200e4daf73fad3",238,2,"green","red","green","left",862,"keep","keep",0,0,0,1,"yellow",0,1,"Same","threat",25,2,0.731907756694891,0.795468727051183,2,"red",0
"480","05d2123d2e574a1cb3200e4daf73fad3",240,1,"red","green","red","left",1247,"keep","keep",1,0,0,1,"green",1,0,"Same","no cue",25,2,0.731907756694891,0.795468727051183,2,"green",0
"482","0cc8d5f169be430bb73d540789eac608",2,2,"green","red","red","right",835,"keep","keep",0,1,0,1,"yellow",0,0,"Different","threat",22,2,-0.512566315414087,-0.406936443915644,1,"green",0
"483","0cc8d5f169be430bb73d540789eac608",3,0,"red","blue","red","left",655,"keep","keep",1,1,1,0,"green",0,1,"Same","threat",22,2,-0.512566315414087,-0.406936443915644,1,"blue",0
"484","0cc8d5f169be430bb73d540789eac608",4,0,"yellow","blue","yellow","left",838,"keep","keep",1,0,0,1,"blue",1,0,"Same","no cue",22,2,-0.512566315414087,-0.406936443915644,1,"blue",0
"485","0cc8d5f169be430bb73d540789eac608",5,2,"yellow","red","red","right",537,"keep","keep",0,1,0,0,"blue",0,1,"Same","no cue",22,2,-0.512566315414087,-0.406936443915644,1,"yellow",0
"486","0cc8d5f169be430bb73d540789eac608",6,1,"green","yellow","green","left",994,"keep","keep",1,1,0,0,"yellow",1,0,"Same","threat",22,2,-0.512566315414087,-0.406936443915644,1,"yellow",0
"487","0cc8d5f169be430bb73d540789eac608",7,0,"yellow","green","green","right",622,"keep","keep",1,0,1,0,"yellow",1,1,"Same","neutral",22,2,-0.512566315414087,-0.406936443915644,1,"yellow",0
"488","0cc8d5f169be430bb73d540789eac608",8,2,"yellow","blue","blue","right",873,"keep","keep",0,0,0,1,"yellow",1,0,"Same","no cue",22,2,-0.512566315414087,-0.406936443915644,1,"yellow",0
"489","0cc8d5f169be430bb73d540789eac608",9,1,"red","green","red","left",1400,"keep","keep",0,1,0,0,"yellow",0,0,"Different","threat",22,2,-0.512566315414087,-0.406936443915644,1,"green",0
"490","0cc8d5f169be430bb73d540789eac608",10,2,"yellow","blue","yellow","left",754,"keep","keep",1,1,0,1,"green",0,0,"Different","neutral",22,2,-0.512566315414087,-0.406936443915644,1,"blue",0
"491","0cc8d5f169be430bb73d540789eac608",11,0,"red","blue","red","left",763,"keep","keep",1,1,0,1,"blue",1,0,"Same","threat",22,2,-0.512566315414087,-0.406936443915644,1,"blue",0
"492","0cc8d5f169be430bb73d540789eac608",12,0,"green","red","red","right",1082,"keep","keep",1,0,1,0,"blue",0,1,"Same","no cue",22,2,-0.512566315414087,-0.406936443915644,1,"green",0
"493","0cc8d5f169be430bb73d540789eac608",13,0,"green","yellow","yellow","right",617,"keep","keep",0,0,0,1,"green",1,0,"Same","no cue",22,2,-0.512566315414087,-0.406936443915644,1,"green",0
"494","0cc8d5f169be430bb73d540789eac608",14,0,"red","green","green","right",522,"keep","keep",0,1,0,1,"green",1,0,"Same","no cue",22,2,-0.512566315414087,-0.406936443915644,1,"red",1
"495","0cc8d5f169be430bb73d540789eac608",15,0,"green","yellow","green","left",481,"keep","keep",1,0,1,0,"red",0,1,"Same","no cue",22,2,-0.512566315414087,-0.406936443915644,1,"yellow",0
"496","0cc8d5f169be430bb73d540789eac608",16,2,"green","red","green","left",902,"keep","keep",0,1,1,1,"yellow",0,1,"Same","no cue",22,2,-0.512566315414087,-0.406936443915644,1,"red",0
"497","0cc8d5f169be430bb73d540789eac608",17,2,"red","blue","blue","right",897,"keep","keep",1,0,0,0,"red",1,0,"Same","threat",22,2,-0.512566315414087,-0.406936443915644,1,"red",0
"498","0cc8d5f169be430bb73d540789eac608",18,1,"green","blue","green","left",682,"keep","keep",0,1,0,0,"red",0,1,"Same","threat",22,2,-0.512566315414087,-0.406936443915644,1,"blue",0
"499","0cc8d5f169be430bb73d540789eac608",19,0,"yellow","red","yellow","left",767,"keep","keep",1,0,0,1,"blue",0,0,"Different","neutral",22,2,-0.512566315414087,-0.406936443915644,1,"red",0
"500","0cc8d5f169be430bb73d540789eac608",20,0,"yellow","blue","blue","right",665,"keep","keep",0,0,0,0,"red",0,1,"Same","no cue",22,2,-0.512566315414087,-0.406936443915644,1,"yellow",0
"501","0cc8d5f169be430bb73d540789eac608",21,2,"green","red","red","right",1083,"keep","keep",0,1,0,1,"yellow",0,0,"Different","no cue",22,2,-0.512566315414087,-0.406936443915644,1,"green",0
"502","0cc8d5f169be430bb73d540789eac608",22,0,"yellow","green","green","right",623,"keep","keep",1,1,0,1,"green",1,0,"Same","threat",22,2,-0.512566315414087,-0.406936443915644,1,"yellow",1
"503","0cc8d5f169be430bb73d540789eac608",23,1,"red","green","green","right",556,"keep","keep",1,1,1,1,"yellow",0,1,"Same","no cue",22,2,-0.512566315414087,-0.406936443915644,1,"red",0
"504","0cc8d5f169be430bb73d540789eac608",24,0,"blue","green","green","right",483,"keep","keep",1,1,1,1,"red",0,1,"Same","neutral",22,2,-0.512566315414087,-0.406936443915644,1,"blue",0
"505","0cc8d5f169be430bb73d540789eac608",25,1,"red","yellow","yellow","right",1009,"keep","keep",1,1,0,1,"blue",0,0,"Different","no cue",22,2,-0.512566315414087,-0.406936443915644,1,"red",0
"506","0cc8d5f169be430bb73d540789eac608",26,0,"blue","green","green","right",673,"keep","keep",1,1,0,1,"red",0,0,"Different","neutral",22,2,-0.512566315414087,-0.406936443915644,1,"blue",0
"507","0cc8d5f169be430bb73d540789eac608",27,2,"blue","green","green","right",476,"keep","keep",1,1,1,1,"blue",1,1,"Same","no cue",22,2,-0.512566315414087,-0.406936443915644,1,"blue",0
"508","0cc8d5f169be430bb73d540789eac608",28,0,"green","yellow","green","left",810,"keep","keep",1,1,1,0,"blue",0,1,"Same","threat",22,2,-0.512566315414087,-0.406936443915644,1,"yellow",0
"509","0cc8d5f169be430bb73d540789eac608",29,0,"green","blue","green","left",456,"keep","keep",1,1,1,1,"yellow",0,1,"Same","no cue",22,2,-0.512566315414087,-0.406936443915644,1,"blue",0
"510","0cc8d5f169be430bb73d540789eac608",30,0,"yellow","red","yellow","left",566,"keep","keep",1,1,0,1,"blue",0,0,"Different","no cue",22,2,-0.512566315414087,-0.406936443915644,1,"red",0
"511","0cc8d5f169be430bb73d540789eac608",31,0,"green","yellow","green","left",934,"keep","keep",1,1,0,1,"red",0,1,"Same","no cue",22,2,-0.512566315414087,-0.406936443915644,1,"yellow",0
"512","0cc8d5f169be430bb73d540789eac608",32,1,"green","red","green","left",506,"keep","keep",1,1,1,1,"yellow",0,1,"Same","no cue",22,2,-0.512566315414087,-0.406936443915644,1,"red",0
"513","0cc8d5f169be430bb73d540789eac608",33,1,"green","blue","green","left",480,"keep","keep",1,0,1,1,"red",0,1,"Same","neutral",22,2,-0.512566315414087,-0.406936443915644,1,"blue",0
"514","0cc8d5f169be430bb73d540789eac608",34,1,"yellow","green","yellow","left",619,"keep","keep",0,1,0,1,"blue",0,1,"Same","neutral",22,2,-0.512566315414087,-0.406936443915644,1,"green",0
"515","0cc8d5f169be430bb73d540789eac608",35,0,"green","blue","blue","right",812,"keep","keep",1,1,0,0,"green",1,0,"Same","neutral",22,2,-0.512566315414087,-0.406936443915644,1,"green",0
"516","0cc8d5f169be430bb73d540789eac608",36,2,"blue","yellow","blue","left",583,"keep","keep",1,0,1,0,"green",0,1,"Same","no cue",22,2,-0.512566315414087,-0.406936443915644,1,"yellow",0
"517","0cc8d5f169be430bb73d540789eac608",37,0,"red","yellow","yellow","right",453,"keep","keep",0,0,0,0,"yellow",1,0,"Same","threat",22,2,-0.512566315414087,-0.406936443915644,1,"red",1
"518","0cc8d5f169be430bb73d540789eac608",38,1,"green","red","red","right",689,"keep","keep",0,0,0,1,"red",1,0,"Same","no cue",22,2,-0.512566315414087,-0.406936443915644,1,"green",1
"519","0cc8d5f169be430bb73d540789eac608",39,2,"green","yellow","green","left",792,"keep","keep",0,0,0,0,"green",1,0,"Same","neutral",22,2,-0.512566315414087,-0.406936443915644,1,"yellow",1
"520","0cc8d5f169be430bb73d540789eac608",40,1,"blue","red","blue","left",939,"keep","keep",0,1,0,1,"yellow",0,0,"Different","threat",22,2,-0.512566315414087,-0.406936443915644,1,"red",0
"522","0cc8d5f169be430bb73d540789eac608",42,0,"green","yellow","yellow","right",491,"keep","keep",1,1,0,0,"blue",0,0,"Different","neutral",22,2,-0.512566315414087,-0.406936443915644,1,"green",0
"523","0cc8d5f169be430bb73d540789eac608",43,0,"yellow","blue","blue","right",451,"keep","keep",1,1,0,1,"green",0,1,"Same","no cue",22,2,-0.512566315414087,-0.406936443915644,1,"yellow",0
"524","0cc8d5f169be430bb73d540789eac608",44,2,"blue","red","blue","left",659,"keep","keep",1,0,1,0,"yellow",0,1,"Same","no cue",22,2,-0.512566315414087,-0.406936443915644,1,"red",0
"525","0cc8d5f169be430bb73d540789eac608",45,1,"green","red","red","right",923,"keep","keep",0,0,0,0,"red",1,0,"Same","threat",22,2,-0.512566315414087,-0.406936443915644,1,"green",1
"526","0cc8d5f169be430bb73d540789eac608",46,0,"blue","red","blue","left",1456,"keep","keep",0,0,0,0,"green",0,1,"Same","neutral",22,2,-0.512566315414087,-0.406936443915644,1,"red",0
"527","0cc8d5f169be430bb73d540789eac608",47,0,"blue","yellow","yellow","right",855,"keep","keep",0,0,0,0,"red",0,1,"Same","no cue",22,2,-0.512566315414087,-0.406936443915644,1,"blue",0
"528","0cc8d5f169be430bb73d540789eac608",48,2,"red","yellow","yellow","right",1187,"keep","keep",0,0,1,1,"blue",0,1,"Same","no cue",22,2,-0.512566315414087,-0.406936443915644,1,"red",0
"529","0cc8d5f169be430bb73d540789eac608",49,0,"green","blue","green","left",984,"keep","keep",0,0,0,0,"red",0,0,"Different","threat",22,2,-0.512566315414087,-0.406936443915644,1,"blue",0
"530","0cc8d5f169be430bb73d540789eac608",50,0,"blue","green","blue","left",531,"keep","keep",0,0,0,1,"blue",1,1,"Same","no cue",22,2,-0.512566315414087,-0.406936443915644,1,"green",1
"531","0cc8d5f169be430bb73d540789eac608",51,2,"green","red","green","left",701,"keep","keep",0,1,0,1,"green",1,0,"Same","no cue",22,2,-0.512566315414087,-0.406936443915644,1,"red",1
"532","0cc8d5f169be430bb73d540789eac608",52,0,"blue","yellow","yellow","right",668,"keep","keep",1,1,0,0,"red",0,0,"Different","threat",22,2,-0.512566315414087,-0.406936443915644,1,"blue",0
"533","0cc8d5f169be430bb73d540789eac608",53,1,"blue","yellow","yellow","right",596,"keep","keep",1,0,1,1,"blue",1,1,"Same","no cue",22,2,-0.512566315414087,-0.406936443915644,1,"blue",0
"534","0cc8d5f169be430bb73d540789eac608",54,1,"green","blue","blue","right",745,"keep","keep",0,1,0,1,"blue",1,0,"Same","neutral",22,2,-0.512566315414087,-0.406936443915644,1,"green",1
"535","0cc8d5f169be430bb73d540789eac608",55,1,"blue","red","blue","left",583,"keep","keep",1,1,1,0,"green",0,1,"Same","neutral",22,2,-0.512566315414087,-0.406936443915644,1,"red",0
"536","0cc8d5f169be430bb73d540789eac608",56,2,"yellow","red","yellow","left",854,"keep","keep",1,0,0,1,"red",1,0,"Same","neutral",22,2,-0.512566315414087,-0.406936443915644,1,"red",0
"537","0cc8d5f169be430bb73d540789eac608",57,0,"red","yellow","red","left",503,"keep","keep",0,1,0,1,"red",1,1,"Same","threat",22,2,-0.512566315414087,-0.406936443915644,1,"yellow",1
"538","0cc8d5f169be430bb73d540789eac608",58,0,"blue","yellow","blue","left",473,"keep","keep",1,0,0,1,"yellow",1,0,"Same","no cue",22,2,-0.512566315414087,-0.406936443915644,1,"yellow",0
"539","0cc8d5f169be430bb73d540789eac608",59,2,"green","yellow","green","left",756,"keep","keep",0,1,0,1,"yellow",1,0,"Same","no cue",22,2,-0.512566315414087,-0.406936443915644,1,"yellow",0
"540","0cc8d5f169be430bb73d540789eac608",60,0,"yellow","blue","yellow","left",1018,"keep","keep",1,0,0,1,"yellow",1,0,"Same","threat",22,2,-0.512566315414087,-0.406936443915644,1,"blue",1
"541","0cc8d5f169be430bb73d540789eac608",61,1,"red","yellow","red","left",946,"keep","keep",0,1,0,1,"blue",0,1,"Same","no cue",22,2,-0.512566315414087,-0.406936443915644,1,"yellow",0
"542","0cc8d5f169be430bb73d540789eac608",62,1,"green","red","red","right",808,"keep","keep",1,1,1,0,"yellow",0,1,"Same","neutral",22,2,-0.512566315414087,-0.406936443915644,1,"green",0
"543","0cc8d5f169be430bb73d540789eac608",63,0,"red","yellow","red","left",440,"keep","keep",1,0,1,0,"green",0,1,"Same","neutral",22,2,-0.512566315414087,-0.406936443915644,1,"yellow",0
"544","0cc8d5f169be430bb73d540789eac608",64,0,"red","yellow","red","left",672,"keep","keep",0,0,1,1,"yellow",1,1,"Same","no cue",22,2,-0.512566315414087,-0.406936443915644,1,"yellow",0
"545","0cc8d5f169be430bb73d540789eac608",65,1,"green","blue","green","left",1018,"keep","keep",0,1,0,1,"yellow",0,0,"Different","no cue",22,2,-0.512566315414087,-0.406936443915644,1,"blue",0
"546","0cc8d5f169be430bb73d540789eac608",66,1,"green","blue","green","left",534,"keep","keep",1,1,1,1,"blue",1,1,"Same","neutral",22,2,-0.512566315414087,-0.406936443915644,1,"blue",0
"547","0cc8d5f169be430bb73d540789eac608",67,0,"red","green","green","right",638,"keep","keep",1,1,1,0,"blue",0,1,"Same","neutral",22,2,-0.512566315414087,-0.406936443915644,1,"red",0
"548","0cc8d5f169be430bb73d540789eac608",68,1,"blue","red","blue","left",777,"keep","keep",1,0,0,0,"red",1,0,"Same","no cue",22,2,-0.512566315414087,-0.406936443915644,1,"red",0
"549","0cc8d5f169be430bb73d540789eac608",69,0,"green","yellow","yellow","right",1520,"keep","keep",0,1,0,0,"red",0,0,"Different","neutral",22,2,-0.512566315414087,-0.406936443915644,1,"green",0
"550","0cc8d5f169be430bb73d540789eac608",70,2,"red","green","green","right",510,"keep","keep",1,0,0,1,"green",1,0,"Same","no cue",22,2,-0.512566315414087,-0.406936443915644,1,"red",1
"551","0cc8d5f169be430bb73d540789eac608",71,1,"yellow","red","yellow","left",605,"keep","keep",0,0,0,0,"red",1,0,"Same","threat",22,2,-0.512566315414087,-0.406936443915644,1,"red",0
"552","0cc8d5f169be430bb73d540789eac608",72,1,"blue","yellow","blue","left",772,"keep","keep",0,1,0,1,"red",0,1,"Same","neutral",22,2,-0.512566315414087,-0.406936443915644,1,"yellow",0
"553","0cc8d5f169be430bb73d540789eac608",73,1,"green","blue","blue","right",752,"keep","keep",1,0,1,0,"yellow",0,1,"Same","neutral",22,2,-0.512566315414087,-0.406936443915644,1,"green",0
"554","0cc8d5f169be430bb73d540789eac608",74,2,"blue","red","red","right",895,"keep","keep",0,1,0,1,"green",0,1,"Same","neutral",22,2,-0.512566315414087,-0.406936443915644,1,"blue",0
"555","0cc8d5f169be430bb73d540789eac608",75,2,"yellow","red","red","right",631,"keep","keep",1,0,1,1,"blue",0,1,"Same","threat",22,2,-0.512566315414087,-0.406936443915644,1,"yellow",0
"556","0cc8d5f169be430bb73d540789eac608",76,2,"blue","green","green","right",1435,"keep","keep",0,1,0,1,"yellow",0,0,"Different","threat",22,2,-0.512566315414087,-0.406936443915644,1,"blue",0
"557","0cc8d5f169be430bb73d540789eac608",77,2,"yellow","blue","yellow","left",814,"keep","keep",1,1,0,0,"blue",1,0,"Same","threat",22,2,-0.512566315414087,-0.406936443915644,1,"blue",0
"558","0cc8d5f169be430bb73d540789eac608",78,0,"yellow","green","yellow","left",558,"keep","keep",1,1,1,1,"blue",0,1,"Same","threat",22,2,-0.512566315414087,-0.406936443915644,1,"green",0
"559","0cc8d5f169be430bb73d540789eac608",79,0,"green","red","green","left",612,"keep","keep",1,1,0,1,"green",1,0,"Same","no cue",22,2,-0.512566315414087,-0.406936443915644,1,"red",1
"560","0cc8d5f169be430bb73d540789eac608",80,2,"blue","red","red","right",948,"keep","keep",1,0,0,0,"red",1,0,"Same","no cue",22,2,-0.512566315414087,-0.406936443915644,1,"blue",1
"562","0cc8d5f169be430bb73d540789eac608",82,2,"yellow","green","yellow","left",785,"keep","keep",0,1,0,0,"blue",0,0,"Different","threat",22,2,-0.512566315414087,-0.406936443915644,1,"green",0
"563","0cc8d5f169be430bb73d540789eac608",83,2,"green","red","green","left",788,"keep","keep",1,0,0,1,"green",1,0,"Same","threat",22,2,-0.512566315414087,-0.406936443915644,1,"red",1
"564","0cc8d5f169be430bb73d540789eac608",84,2,"blue","red","blue","left",907,"keep","keep",0,0,0,1,"red",1,0,"Same","threat",22,2,-0.512566315414087,-0.406936443915644,1,"red",0
"565","0cc8d5f169be430bb73d540789eac608",85,0,"red","green","red","left",463,"keep","keep",0,0,0,1,"red",1,0,"Same","threat",22,2,-0.512566315414087,-0.406936443915644,1,"green",1
"566","0cc8d5f169be430bb73d540789eac608",86,1,"red","blue","blue","right",593,"keep","keep",0,0,0,0,"green",0,1,"Same","no cue",22,2,-0.512566315414087,-0.406936443915644,1,"red",0
"567","0cc8d5f169be430bb73d540789eac608",87,0,"red","yellow","yellow","right",552,"keep","keep",0,0,0,1,"red",1,0,"Same","neutral",22,2,-0.512566315414087,-0.406936443915644,1,"red",0
"568","0cc8d5f169be430bb73d540789eac608",88,2,"yellow","green","green","right",929,"keep","keep",0,0,0,1,"red",0,1,"Same","no cue",22,2,-0.512566315414087,-0.406936443915644,1,"yellow",0
"569","0cc8d5f169be430bb73d540789eac608",89,1,"blue","red","blue","left",703,"keep","keep",0,1,0,0,"yellow",0,0,"Different","threat",22,2,-0.512566315414087,-0.406936443915644,1,"red",0
"570","0cc8d5f169be430bb73d540789eac608",90,1,"yellow","green","green","right",1012,"keep","keep",1,1,0,0,"red",0,0,"Different","neutral",22,2,-0.512566315414087,-0.406936443915644,1,"yellow",0
"571","0cc8d5f169be430bb73d540789eac608",91,2,"yellow","green","green","right",794,"keep","keep",1,0,1,1,"yellow",1,1,"Same","neutral",22,2,-0.512566315414087,-0.406936443915644,1,"yellow",0
"572","0cc8d5f169be430bb73d540789eac608",92,1,"red","blue","blue","right",1154,"keep","keep",0,1,0,1,"yellow",0,0,"Different","threat",22,2,-0.512566315414087,-0.406936443915644,1,"red",0
"573","0cc8d5f169be430bb73d540789eac608",93,1,"green","blue","blue","right",533,"keep","keep",1,0,1,1,"red",0,1,"Same","neutral",22,2,-0.512566315414087,-0.406936443915644,1,"green",0
"574","0cc8d5f169be430bb73d540789eac608",94,1,"yellow","green","green","right",644,"keep","keep",0,1,0,1,"green",1,0,"Same","neutral",22,2,-0.512566315414087,-0.406936443915644,1,"yellow",1
"575","0cc8d5f169be430bb73d540789eac608",95,2,"green","blue","green","left",678,"keep","keep",1,0,1,0,"yellow",0,1,"Same","neutral",22,2,-0.512566315414087,-0.406936443915644,1,"blue",0
"576","0cc8d5f169be430bb73d540789eac608",96,0,"blue","red","blue","left",585,"keep","keep",0,0,0,1,"blue",1,0,"Same","threat",22,2,-0.512566315414087,-0.406936443915644,1,"red",1
"577","0cc8d5f169be430bb73d540789eac608",97,1,"red","blue","red","left",492,"keep","keep",0,1,0,1,"red",1,1,"Same","no cue",22,2,-0.512566315414087,-0.406936443915644,1,"blue",1
"578","0cc8d5f169be430bb73d540789eac608",98,0,"blue","yellow","yellow","right",625,"keep","keep",1,0,0,0,"blue",1,0,"Same","neutral",22,2,-0.512566315414087,-0.406936443915644,1,"blue",0
"579","0cc8d5f169be430bb73d540789eac608",99,1,"red","green","red","left",872,"keep","keep",0,1,0,0,"blue",0,0,"Different","no cue",22,2,-0.512566315414087,-0.406936443915644,1,"green",0
"580","0cc8d5f169be430bb73d540789eac608",100,2,"red","blue","red","left",493,"keep","keep",1,1,1,1,"green",0,1,"Same","neutral",22,2,-0.512566315414087,-0.406936443915644,1,"blue",0
"581","0cc8d5f169be430bb73d540789eac608",101,2,"green","blue","blue","right",734,"keep","keep",1,0,0,0,"blue",1,0,"Same","threat",22,2,-0.512566315414087,-0.406936443915644,1,"green",1
"582","0cc8d5f169be430bb73d540789eac608",102,0,"blue","yellow","yellow","right",644,"keep","keep",0,1,0,1,"green",0,1,"Same","threat",22,2,-0.512566315414087,-0.406936443915644,1,"blue",0
"583","0cc8d5f169be430bb73d540789eac608",103,1,"red","yellow","yellow","right",553,"keep","keep",1,1,1,1,"blue",0,1,"Same","no cue",22,2,-0.512566315414087,-0.406936443915644,1,"red",0
"584","0cc8d5f169be430bb73d540789eac608",104,2,"red","yellow","yellow","right",470,"keep","keep",1,0,1,1,"red",1,1,"Same","neutral",22,2,-0.512566315414087,-0.406936443915644,1,"red",0
"585","0cc8d5f169be430bb73d540789eac608",105,2,"yellow","red","red","right",864,"keep","keep",0,1,0,1,"red",1,1,"Same","threat",22,2,-0.512566315414087,-0.406936443915644,1,"yellow",1
